success,timeout,failed_images,failed_audio,failed_video,trial_type,trial_index,plugin_version,time_elapsed,subject_id,study_id,session_id,rt,stimulus,response,spk,sentence_id,prev_spk,label,correct,source_file
True,False,[],[],[],preload,0,2.1.0,3107,67f9b647dcd4755a0f10984c,6969c6242409f4b0184101e3,696aaa1c7a890db34ab30457,,,,,,,,,12wokqv1u0.csv
,,,,,html-button-response,1,2.1.0,7901,67f9b647dcd4755a0f10984c,6969c6242409f4b0184101e3,696aaa1c7a890db34ab30457,4791.0,"
        <div style=""font-size: 16px; text-align: center; margin-top: 25px; margin-right: 100px; margin-left: 100px; margin-bottom: 25px;"">
            <img src=""./image/SUSig_2color_Stree_Left.png"" alt=""Stanford Logo"" style=""max-width: 500px; margin-bottom: 20px;"">
            <h3>DESCRIPTION</h3>
            <p>You are invited to participate in a research study. Its general purpose is to understand how people perceive spoken language. We are interested in how people make use of varying properties of language to infer social information about a speaker. In this study, you will hear spoken sentences, and you will be asked to make simple decisions about the speaker of each sentence. Following this, you will be asked to complete a short demographic survey. Participation in this research is voluntary, and you are free to withdraw your consent at any time.</p>
            <h3>TIME INVOLVEMENT</h3> 
            <p>Your participation will take approximately 15 to 20 minutes.</p>
            <h3>PAYMENT</h3> 
            <p>You will be paid at the posted rate.</p>
            <h3>PRIVACY AND CONFIDENTIALITY</h3> 
            <p>The risks associated with this study are minimal. This judgment is based on a large body of experience with the same or similar procedures with people of similar ages, sex, origins, etc. Study data will be stored securely, in compliance with Stanford University standards, minimizing the risk of confidentiality breach. Your individual privacy will be maintained during the research and in all published and written data resulting from the study.</p>
            <h3>CONTACT INFORMATION</h3>
            <p>If you have any questions, concerns or complaints about this research study, its procedures, risks and benefits, you should contact the Protocol Director, Grace Brown, at (616) 498-8188. If you are not satisfied with how this study is being conducted, or if you have any concerns, complaints, or general questions about the research or your rights as a participant, please contact the Stanford Institutional Review Board (IRB) to speak to someone independent of the research team at (650) 723-2480 or toll free at 1-866-680-2906. You can also write to the Stanford IRB, Stanford University, 1705 El Camino Real, Palo Alto, CA 94306 USA.</p> 
            <p>Please save or print a copy of this page for your records</p>
            <p>If you agree to participate in this research, please click the 'Continue' button.</p>
        </div>
    ",0,,,,,,12wokqv1u0.csv
,,,,,html-button-response,2,2.1.0,22181,67f9b647dcd4755a0f10984c,6969c6242409f4b0184101e3,696aaa1c7a890db34ab30457,14278.0,"
    <div class=""gen_ins"">
    <p>Before the experiment begins, we'd like to do a quick audio check. During the audio check, you'll hear two tones in a row, and then be asked to select which tone was quieter. Sometimes, the two tones will be the same.<br><br>If the first tone was quieter, press '1', and if the second tone was quieter, press '2'. If both tones seemed about the same, press '0'.<br><br>When you're ready, click 'Start Check' to begin the audio check.</p>
    </div>
    ",0,,,,,,12wokqv1u0.csv
,,,,,html-keyboard-response,3,2.1.0,22192,67f9b647dcd4755a0f10984c,6969c6242409f4b0184101e3,696aaa1c7a890db34ab30457,, ,,,,,,,12wokqv1u0.csv
,,,,,audio-keyboard-response,4,2.1.0,24371,67f9b647dcd4755a0f10984c,6969c6242409f4b0184101e3,696aaa1c7a890db34ab30457,,audio/IO.wav,,,,,,,12wokqv1u0.csv
,,,,,html-keyboard-response,5,2.1.0,29380,67f9b647dcd4755a0f10984c,6969c6242409f4b0184101e3,696aaa1c7a890db34ab30457,,"
  <div class=""quietest-container"">
    <div>
      <p class=""quietest"">Which sound was the quietest?</p>
    </div>
    <div class=""yes-no"">
      <div class=""quietest_option"">
        <p>FIRST</p><p>Press 1</p>
      </div>
      <div class=""quietest_option"">
        <p>SECOND</p><p>Press 2</p>
      </div>
      <div class=""quietest_option"">
        <p>NONE</p><p>Press 0</p>
      </div>
    </div>
  </div>
",,,,,,,12wokqv1u0.csv
,,,,,audio-keyboard-response,6,2.1.0,32269,67f9b647dcd4755a0f10984c,6969c6242409f4b0184101e3,696aaa1c7a890db34ab30457,,audio/QI.wav,,,,,,,12wokqv1u0.csv
,,,,,html-keyboard-response,7,2.1.0,36088,67f9b647dcd4755a0f10984c,6969c6242409f4b0184101e3,696aaa1c7a890db34ab30457,3818.0,"
  <div class=""quietest-container"">
    <div>
      <p class=""quietest"">Which sound was the quietest?</p>
    </div>
    <div class=""yes-no"">
      <div class=""quietest_option"">
        <p>FIRST</p><p>Press 1</p>
      </div>
      <div class=""quietest_option"">
        <p>SECOND</p><p>Press 2</p>
      </div>
      <div class=""quietest_option"">
        <p>NONE</p><p>Press 0</p>
      </div>
    </div>
  </div>
",0,,,,,,12wokqv1u0.csv
,,,,,audio-keyboard-response,8,2.1.0,38969,67f9b647dcd4755a0f10984c,6969c6242409f4b0184101e3,696aaa1c7a890db34ab30457,,audio/IQ.wav,,,,,,,12wokqv1u0.csv
,,,,,html-keyboard-response,9,2.1.0,41648,67f9b647dcd4755a0f10984c,6969c6242409f4b0184101e3,696aaa1c7a890db34ab30457,2676.0,"
  <div class=""quietest-container"">
    <div>
      <p class=""quietest"">Which sound was the quietest?</p>
    </div>
    <div class=""yes-no"">
      <div class=""quietest_option"">
        <p>FIRST</p><p>Press 1</p>
      </div>
      <div class=""quietest_option"">
        <p>SECOND</p><p>Press 2</p>
      </div>
      <div class=""quietest_option"">
        <p>NONE</p><p>Press 0</p>
      </div>
    </div>
  </div>
",2,,,,,,12wokqv1u0.csv
,,,,,audio-keyboard-response,10,2.1.0,44529,67f9b647dcd4755a0f10984c,6969c6242409f4b0184101e3,696aaa1c7a890db34ab30457,,audio/OI.wav,,,,,,,12wokqv1u0.csv
,,,,,html-keyboard-response,11,2.1.0,49085,67f9b647dcd4755a0f10984c,6969c6242409f4b0184101e3,696aaa1c7a890db34ab30457,4555.0,"
  <div class=""quietest-container"">
    <div>
      <p class=""quietest"">Which sound was the quietest?</p>
    </div>
    <div class=""yes-no"">
      <div class=""quietest_option"">
        <p>FIRST</p><p>Press 1</p>
      </div>
      <div class=""quietest_option"">
        <p>SECOND</p><p>Press 2</p>
      </div>
      <div class=""quietest_option"">
        <p>NONE</p><p>Press 0</p>
      </div>
    </div>
  </div>
",1,,,,,,12wokqv1u0.csv
,,,,,audio-keyboard-response,12,2.1.0,51960,67f9b647dcd4755a0f10984c,6969c6242409f4b0184101e3,696aaa1c7a890db34ab30457,,audio/IO.wav,,,,,,,12wokqv1u0.csv
,,,,,html-keyboard-response,13,2.1.0,54030,67f9b647dcd4755a0f10984c,6969c6242409f4b0184101e3,696aaa1c7a890db34ab30457,2068.0,"
  <div class=""quietest-container"">
    <div>
      <p class=""quietest"">Which sound was the quietest?</p>
    </div>
    <div class=""yes-no"">
      <div class=""quietest_option"">
        <p>FIRST</p><p>Press 1</p>
      </div>
      <div class=""quietest_option"">
        <p>SECOND</p><p>Press 2</p>
      </div>
      <div class=""quietest_option"">
        <p>NONE</p><p>Press 0</p>
      </div>
    </div>
  </div>
",1,,,,,,12wokqv1u0.csv
,,,,,audio-keyboard-response,14,2.1.0,56910,67f9b647dcd4755a0f10984c,6969c6242409f4b0184101e3,696aaa1c7a890db34ab30457,,audio/IQ.wav,,,,,,,12wokqv1u0.csv
,,,,,html-keyboard-response,15,2.1.0,57389,67f9b647dcd4755a0f10984c,6969c6242409f4b0184101e3,696aaa1c7a890db34ab30457,477.0,"
  <div class=""quietest-container"">
    <div>
      <p class=""quietest"">Which sound was the quietest?</p>
    </div>
    <div class=""yes-no"">
      <div class=""quietest_option"">
        <p>FIRST</p><p>Press 1</p>
      </div>
      <div class=""quietest_option"">
        <p>SECOND</p><p>Press 2</p>
      </div>
      <div class=""quietest_option"">
        <p>NONE</p><p>Press 0</p>
      </div>
    </div>
  </div>
",0,,,,,,12wokqv1u0.csv
,,,,,audio-keyboard-response,16,2.1.0,60280,67f9b647dcd4755a0f10984c,6969c6242409f4b0184101e3,696aaa1c7a890db34ab30457,,audio/OI.wav,,,,,,,12wokqv1u0.csv
,,,,,html-keyboard-response,17,2.1.0,60422,67f9b647dcd4755a0f10984c,6969c6242409f4b0184101e3,696aaa1c7a890db34ab30457,139.0,"
  <div class=""quietest-container"">
    <div>
      <p class=""quietest"">Which sound was the quietest?</p>
    </div>
    <div class=""yes-no"">
      <div class=""quietest_option"">
        <p>FIRST</p><p>Press 1</p>
      </div>
      <div class=""quietest_option"">
        <p>SECOND</p><p>Press 2</p>
      </div>
      <div class=""quietest_option"">
        <p>NONE</p><p>Press 0</p>
      </div>
    </div>
  </div>
",0,,,,,,12wokqv1u0.csv
,,,,,audio-keyboard-response,18,2.1.0,63299,67f9b647dcd4755a0f10984c,6969c6242409f4b0184101e3,696aaa1c7a890db34ab30457,,audio/QI.wav,,,,,,,12wokqv1u0.csv
,,,,,html-keyboard-response,19,2.1.0,63507,67f9b647dcd4755a0f10984c,6969c6242409f4b0184101e3,696aaa1c7a890db34ab30457,206.0,"
  <div class=""quietest-container"">
    <div>
      <p class=""quietest"">Which sound was the quietest?</p>
    </div>
    <div class=""yes-no"">
      <div class=""quietest_option"">
        <p>FIRST</p><p>Press 1</p>
      </div>
      <div class=""quietest_option"">
        <p>SECOND</p><p>Press 2</p>
      </div>
      <div class=""quietest_option"">
        <p>NONE</p><p>Press 0</p>
      </div>
    </div>
  </div>
",2,,,,,,12wokqv1u0.csv
,,,,,html-keyboard-response,20,2.1.0,64537,67f9b647dcd4755a0f10984c,6969c6242409f4b0184101e3,696aaa1c7a890db34ab30457,, ,,,,,,,12wokqv1u0.csv
,,,,,html-keyboard-response,21,2.1.0,110802,67f9b647dcd4755a0f10984c,6969c6242409f4b0184101e3,696aaa1c7a890db34ab30457,46264.0,"
    <div class=""gen_ins"">
      <p>
        The results of the audio check suggest you may not be wearing headphones,
        as is required for participation in this experiment.
        <br><br>
        If you'd like put on headphones and continue, or believe you're getting
        this message in error, please try the audio check again.
        Otherwise, please return to Prolific.
        <br><br>
        When you're ready, press the space bar to restart the audio check.
      </p>
    </div>
  ", ,,,,,,12wokqv1u0.csv
,,,,,audio-keyboard-response,22,2.1.0,112698,67f9b647dcd4755a0f10984c,6969c6242409f4b0184101e3,696aaa1c7a890db34ab30457,,audio/OI.wav,,,,,,,12wokqv1u0.csv
,,,,,html-keyboard-response,23,2.1.0,115290,67f9b647dcd4755a0f10984c,6969c6242409f4b0184101e3,696aaa1c7a890db34ab30457,2591.0,"
  <div class=""quietest-container"">
    <div>
      <p class=""quietest"">Which sound was the quietest?</p>
    </div>
    <div class=""yes-no"">
      <div class=""quietest_option"">
        <p>FIRST</p><p>Press 1</p>
      </div>
      <div class=""quietest_option"">
        <p>SECOND</p><p>Press 2</p>
      </div>
      <div class=""quietest_option"">
        <p>NONE</p><p>Press 0</p>
      </div>
    </div>
  </div>
",1,,,,,,12wokqv1u0.csv
,,,,,audio-keyboard-response,24,2.1.0,118188,67f9b647dcd4755a0f10984c,6969c6242409f4b0184101e3,696aaa1c7a890db34ab30457,,audio/IO.wav,,,,,,,12wokqv1u0.csv
,,,,,html-keyboard-response,25,2.1.0,119166,67f9b647dcd4755a0f10984c,6969c6242409f4b0184101e3,696aaa1c7a890db34ab30457,976.0,"
  <div class=""quietest-container"">
    <div>
      <p class=""quietest"">Which sound was the quietest?</p>
    </div>
    <div class=""yes-no"">
      <div class=""quietest_option"">
        <p>FIRST</p><p>Press 1</p>
      </div>
      <div class=""quietest_option"">
        <p>SECOND</p><p>Press 2</p>
      </div>
      <div class=""quietest_option"">
        <p>NONE</p><p>Press 0</p>
      </div>
    </div>
  </div>
",1,,,,,,12wokqv1u0.csv
,,,,,audio-keyboard-response,26,2.1.0,122058,67f9b647dcd4755a0f10984c,6969c6242409f4b0184101e3,696aaa1c7a890db34ab30457,,audio/IO.wav,,,,,,,12wokqv1u0.csv
,,,,,html-keyboard-response,27,2.1.0,122639,67f9b647dcd4755a0f10984c,6969c6242409f4b0184101e3,696aaa1c7a890db34ab30457,580.0,"
  <div class=""quietest-container"">
    <div>
      <p class=""quietest"">Which sound was the quietest?</p>
    </div>
    <div class=""yes-no"">
      <div class=""quietest_option"">
        <p>FIRST</p><p>Press 1</p>
      </div>
      <div class=""quietest_option"">
        <p>SECOND</p><p>Press 2</p>
      </div>
      <div class=""quietest_option"">
        <p>NONE</p><p>Press 0</p>
      </div>
    </div>
  </div>
",1,,,,,,12wokqv1u0.csv
,,,,,audio-keyboard-response,28,2.1.0,125527,67f9b647dcd4755a0f10984c,6969c6242409f4b0184101e3,696aaa1c7a890db34ab30457,,audio/IQ.wav,,,,,,,12wokqv1u0.csv
,,,,,html-keyboard-response,29,2.1.0,127150,67f9b647dcd4755a0f10984c,6969c6242409f4b0184101e3,696aaa1c7a890db34ab30457,1623.0,"
  <div class=""quietest-container"">
    <div>
      <p class=""quietest"">Which sound was the quietest?</p>
    </div>
    <div class=""yes-no"">
      <div class=""quietest_option"">
        <p>FIRST</p><p>Press 1</p>
      </div>
      <div class=""quietest_option"">
        <p>SECOND</p><p>Press 2</p>
      </div>
      <div class=""quietest_option"">
        <p>NONE</p><p>Press 0</p>
      </div>
    </div>
  </div>
",2,,,,,,12wokqv1u0.csv
,,,,,audio-keyboard-response,30,2.1.0,130038,67f9b647dcd4755a0f10984c,6969c6242409f4b0184101e3,696aaa1c7a890db34ab30457,,audio/QI.wav,,,,,,,12wokqv1u0.csv
,,,,,html-keyboard-response,31,2.1.0,130789,67f9b647dcd4755a0f10984c,6969c6242409f4b0184101e3,696aaa1c7a890db34ab30457,751.0,"
  <div class=""quietest-container"">
    <div>
      <p class=""quietest"">Which sound was the quietest?</p>
    </div>
    <div class=""yes-no"">
      <div class=""quietest_option"">
        <p>FIRST</p><p>Press 1</p>
      </div>
      <div class=""quietest_option"">
        <p>SECOND</p><p>Press 2</p>
      </div>
      <div class=""quietest_option"">
        <p>NONE</p><p>Press 0</p>
      </div>
    </div>
  </div>
",1,,,,,,12wokqv1u0.csv
,,,,,audio-keyboard-response,32,2.1.0,133678,67f9b647dcd4755a0f10984c,6969c6242409f4b0184101e3,696aaa1c7a890db34ab30457,,audio/IQ.wav,,,,,,,12wokqv1u0.csv
,,,,,html-keyboard-response,33,2.1.0,134470,67f9b647dcd4755a0f10984c,6969c6242409f4b0184101e3,696aaa1c7a890db34ab30457,790.0,"
  <div class=""quietest-container"">
    <div>
      <p class=""quietest"">Which sound was the quietest?</p>
    </div>
    <div class=""yes-no"">
      <div class=""quietest_option"">
        <p>FIRST</p><p>Press 1</p>
      </div>
      <div class=""quietest_option"">
        <p>SECOND</p><p>Press 2</p>
      </div>
      <div class=""quietest_option"">
        <p>NONE</p><p>Press 0</p>
      </div>
    </div>
  </div>
",2,,,,,,12wokqv1u0.csv
,,,,,audio-keyboard-response,34,2.1.0,137368,67f9b647dcd4755a0f10984c,6969c6242409f4b0184101e3,696aaa1c7a890db34ab30457,,audio/QI.wav,,,,,,,12wokqv1u0.csv
,,,,,html-keyboard-response,35,2.1.0,138195,67f9b647dcd4755a0f10984c,6969c6242409f4b0184101e3,696aaa1c7a890db34ab30457,825.0,"
  <div class=""quietest-container"">
    <div>
      <p class=""quietest"">Which sound was the quietest?</p>
    </div>
    <div class=""yes-no"">
      <div class=""quietest_option"">
        <p>FIRST</p><p>Press 1</p>
      </div>
      <div class=""quietest_option"">
        <p>SECOND</p><p>Press 2</p>
      </div>
      <div class=""quietest_option"">
        <p>NONE</p><p>Press 0</p>
      </div>
    </div>
  </div>
",1,,,,,,12wokqv1u0.csv
,,,,,audio-keyboard-response,36,2.1.0,141078,67f9b647dcd4755a0f10984c,6969c6242409f4b0184101e3,696aaa1c7a890db34ab30457,,audio/OI.wav,,,,,,,12wokqv1u0.csv
,,,,,html-keyboard-response,37,2.1.0,141526,67f9b647dcd4755a0f10984c,6969c6242409f4b0184101e3,696aaa1c7a890db34ab30457,446.0,"
  <div class=""quietest-container"">
    <div>
      <p class=""quietest"">Which sound was the quietest?</p>
    </div>
    <div class=""yes-no"">
      <div class=""quietest_option"">
        <p>FIRST</p><p>Press 1</p>
      </div>
      <div class=""quietest_option"">
        <p>SECOND</p><p>Press 2</p>
      </div>
      <div class=""quietest_option"">
        <p>NONE</p><p>Press 0</p>
      </div>
    </div>
  </div>
",0,,,,,,12wokqv1u0.csv
,,,,,html-keyboard-response,38,2.1.0,142545,67f9b647dcd4755a0f10984c,6969c6242409f4b0184101e3,696aaa1c7a890db34ab30457,, ,,,,,,,12wokqv1u0.csv
,,,,,html-keyboard-response,39,2.1.0,142549,67f9b647dcd4755a0f10984c,6969c6242409f4b0184101e3,696aaa1c7a890db34ab30457,,"
    <div class=""gen_ins"">
      <p>
        The results of the audio check suggest that you're not wearing headphones,
        as is required for participation in this experiment.
        <br><br>
        Please close this window and return to Prolific.
      </p>
    </div>
  ",,,,,,,12wokqv1u0.csv
,,,,,html-keyboard-response,40,2.1.0,144074,67f9b647dcd4755a0f10984c,6969c6242409f4b0184101e3,696aaa1c7a890db34ab30457,1524.0,"
    <div class=""gen_ins"">
      <p>
        Thank you for completing the audio check.
        Please press the space bar to continue to the experiment.
      </p>
    </div>
  ", ,,,,,,12wokqv1u0.csv
,,,,,html-button-response,41,2.1.0,169809,67f9b647dcd4755a0f10984c,6969c6242409f4b0184101e3,696aaa1c7a890db34ab30457,25732.0,"
    <div class=""gen_ins""; style=""font-size: 16px; text-align: center; margin-top: 25px; margin-right: 100px; margin-left: 100px; margin-bottom: 25px;"">
        <p>In this study, you will listen to sentences produced by a variety of speakers. For each trial, you will hear one of these sentences. While the clip plays, you will be prompted to select one of two labels that best describes the speaker. To select a response, press either the ‘D’ or ‘K’ key on your keyboard. Please respond as quickly as possible. If you do not respond within 10 seconds, the experiment will advance automatically.</p>
        <p>This is a pilot. There may be bugs. </p>
        <p>If you understand the instructions and are ready to begin the practice trials, click ‘Continue’.</p>
    </div>
    ",0,,,,,,12wokqv1u0.csv
,,,,,html-keyboard-response,42,2.1.0,172825,67f9b647dcd4755a0f10984c,6969c6242409f4b0184101e3,696aaa1c7a890db34ab30457,,"
  <div class=""header_container""><div class=""header"">BLOCK 1</div></div>
  ",,,,,,,12wokqv1u0.csv
,,,,,audio-keyboard-response,43,2.1.0,176311,67f9b647dcd4755a0f10984c,6969c6242409f4b0184101e3,696aaa1c7a890db34ab30457,3480.0,audio/752_518_B2.wav,k,752.0,518.0,,comfortable,,12wokqv1u0.csv
,,,,,html-keyboard-response,44,2.1.0,176827,67f9b647dcd4755a0f10984c,6969c6242409f4b0184101e3,696aaa1c7a890db34ab30457,,,,,,,,,12wokqv1u0.csv
,,,,,audio-keyboard-response,45,2.1.0,179300,67f9b647dcd4755a0f10984c,6969c6242409f4b0184101e3,696aaa1c7a890db34ab30457,2469.0,audio/573_615_B3.wav,k,573.0,615.0,752.0,comfortable,,12wokqv1u0.csv
,,,,,html-keyboard-response,46,2.1.0,179802,67f9b647dcd4755a0f10984c,6969c6242409f4b0184101e3,696aaa1c7a890db34ab30457,,,,,,,,,12wokqv1u0.csv
,,,,,audio-keyboard-response,47,2.1.0,183374,67f9b647dcd4755a0f10984c,6969c6242409f4b0184101e3,696aaa1c7a890db34ab30457,3571.0,audio/672_726_B4.wav,d,672.0,726.0,573.0,awkward,,12wokqv1u0.csv
,,,,,html-keyboard-response,48,2.1.0,183888,67f9b647dcd4755a0f10984c,6969c6242409f4b0184101e3,696aaa1c7a890db34ab30457,,,,,,,,,12wokqv1u0.csv
,,,,,audio-keyboard-response,49,2.1.0,189290,67f9b647dcd4755a0f10984c,6969c6242409f4b0184101e3,696aaa1c7a890db34ab30457,5400.0,audio/493_538_B1.wav,k,493.0,538.0,672.0,comfortable,,12wokqv1u0.csv
,,,,,html-keyboard-response,50,2.1.0,189804,67f9b647dcd4755a0f10984c,6969c6242409f4b0184101e3,696aaa1c7a890db34ab30457,,,,,,,,,12wokqv1u0.csv
,,,,,audio-keyboard-response,51,2.1.0,191997,67f9b647dcd4755a0f10984c,6969c6242409f4b0184101e3,696aaa1c7a890db34ab30457,2189.0,audio/573_618_B3.wav,k,573.0,618.0,493.0,comfortable,,12wokqv1u0.csv
,,,,,html-keyboard-response,52,2.1.0,192512,67f9b647dcd4755a0f10984c,6969c6242409f4b0184101e3,696aaa1c7a890db34ab30457,,,,,,,,,12wokqv1u0.csv
,,,,,audio-keyboard-response,53,2.1.0,195501,67f9b647dcd4755a0f10984c,6969c6242409f4b0184101e3,696aaa1c7a890db34ab30457,2989.0,audio/573_724_B3.wav,k,573.0,724.0,573.0,comfortable,,12wokqv1u0.csv
,,,,,html-keyboard-response,54,2.1.0,196019,67f9b647dcd4755a0f10984c,6969c6242409f4b0184101e3,696aaa1c7a890db34ab30457,,,,,,,,,12wokqv1u0.csv
,,,,,audio-keyboard-response,55,2.1.0,199849,67f9b647dcd4755a0f10984c,6969c6242409f4b0184101e3,696aaa1c7a890db34ab30457,3832.0,audio/752_720_B3.wav,d,752.0,720.0,573.0,awkward,,12wokqv1u0.csv
,,,,,html-keyboard-response,56,2.1.0,200367,67f9b647dcd4755a0f10984c,6969c6242409f4b0184101e3,696aaa1c7a890db34ab30457,,,,,,,,,12wokqv1u0.csv
,,,,,audio-keyboard-response,57,2.1.0,202412,67f9b647dcd4755a0f10984c,6969c6242409f4b0184101e3,696aaa1c7a890db34ab30457,2040.0,audio/752_532_B2.wav,k,752.0,532.0,752.0,comfortable,,12wokqv1u0.csv
,,,,,html-keyboard-response,58,2.1.0,202916,67f9b647dcd4755a0f10984c,6969c6242409f4b0184101e3,696aaa1c7a890db34ab30457,,,,,,,,,12wokqv1u0.csv
,,,,,audio-keyboard-response,59,2.1.0,206182,67f9b647dcd4755a0f10984c,6969c6242409f4b0184101e3,696aaa1c7a890db34ab30457,3259.0,audio/493_624_B4.wav,k,493.0,624.0,752.0,comfortable,,12wokqv1u0.csv
,,,,,html-keyboard-response,60,2.1.0,206695,67f9b647dcd4755a0f10984c,6969c6242409f4b0184101e3,696aaa1c7a890db34ab30457,,,,,,,,,12wokqv1u0.csv
,,,,,audio-keyboard-response,61,2.1.0,208783,67f9b647dcd4755a0f10984c,6969c6242409f4b0184101e3,696aaa1c7a890db34ab30457,2088.0,audio/573_509_B1.wav,k,573.0,509.0,493.0,comfortable,,12wokqv1u0.csv
,,,,,html-keyboard-response,62,2.1.0,209297,67f9b647dcd4755a0f10984c,6969c6242409f4b0184101e3,696aaa1c7a890db34ab30457,,,,,,,,,12wokqv1u0.csv
,,,,,audio-keyboard-response,63,2.1.0,212863,67f9b647dcd4755a0f10984c,6969c6242409f4b0184101e3,696aaa1c7a890db34ab30457,3560.0,audio/672_540_B2.wav,d,672.0,540.0,573.0,awkward,,12wokqv1u0.csv
,,,,,html-keyboard-response,64,2.1.0,213375,67f9b647dcd4755a0f10984c,6969c6242409f4b0184101e3,696aaa1c7a890db34ab30457,,,,,,,,,12wokqv1u0.csv
,,,,,audio-keyboard-response,65,2.1.0,217500,67f9b647dcd4755a0f10984c,6969c6242409f4b0184101e3,696aaa1c7a890db34ab30457,4128.0,audio/672_619_B4.wav,k,672.0,619.0,672.0,comfortable,,12wokqv1u0.csv
,,,,,html-keyboard-response,66,2.1.0,218017,67f9b647dcd4755a0f10984c,6969c6242409f4b0184101e3,696aaa1c7a890db34ab30457,,,,,,,,,12wokqv1u0.csv
,,,,,audio-keyboard-response,67,2.1.0,221078,67f9b647dcd4755a0f10984c,6969c6242409f4b0184101e3,696aaa1c7a890db34ab30457,3061.0,audio/752_625_B4.wav,k,752.0,625.0,672.0,comfortable,,12wokqv1u0.csv
,,,,,html-keyboard-response,68,2.1.0,221595,67f9b647dcd4755a0f10984c,6969c6242409f4b0184101e3,696aaa1c7a890db34ab30457,,,,,,,,,12wokqv1u0.csv
,,,,,audio-keyboard-response,69,2.1.0,224379,67f9b647dcd4755a0f10984c,6969c6242409f4b0184101e3,696aaa1c7a890db34ab30457,2789.0,audio/573_506_B1.wav,k,573.0,506.0,752.0,comfortable,,12wokqv1u0.csv
,,,,,html-keyboard-response,70,2.1.0,224895,67f9b647dcd4755a0f10984c,6969c6242409f4b0184101e3,696aaa1c7a890db34ab30457,,,,,,,,,12wokqv1u0.csv
,,,,,audio-keyboard-response,71,2.1.0,228293,67f9b647dcd4755a0f10984c,6969c6242409f4b0184101e3,696aaa1c7a890db34ab30457,3400.0,audio/672_715_B4.wav,k,672.0,715.0,573.0,comfortable,,12wokqv1u0.csv
,,,,,html-keyboard-response,72,2.1.0,228801,67f9b647dcd4755a0f10984c,6969c6242409f4b0184101e3,696aaa1c7a890db34ab30457,,,,,,,,,12wokqv1u0.csv
,,,,,audio-keyboard-response,73,2.1.0,232148,67f9b647dcd4755a0f10984c,6969c6242409f4b0184101e3,696aaa1c7a890db34ab30457,3349.0,audio/752_705_B4.wav,k,752.0,705.0,672.0,comfortable,,12wokqv1u0.csv
,,,,,html-keyboard-response,74,2.1.0,232653,67f9b647dcd4755a0f10984c,6969c6242409f4b0184101e3,696aaa1c7a890db34ab30457,,,,,,,,,12wokqv1u0.csv
,,,,,audio-keyboard-response,75,2.1.0,236191,67f9b647dcd4755a0f10984c,6969c6242409f4b0184101e3,696aaa1c7a890db34ab30457,3539.0,audio/752_718_redo2.wav,k,752.0,718.0,752.0,comfortable,,12wokqv1u0.csv
,,,,,html-keyboard-response,76,2.1.0,236703,67f9b647dcd4755a0f10984c,6969c6242409f4b0184101e3,696aaa1c7a890db34ab30457,,,,,,,,,12wokqv1u0.csv
,,,,,audio-keyboard-response,77,2.1.0,238975,67f9b647dcd4755a0f10984c,6969c6242409f4b0184101e3,696aaa1c7a890db34ab30457,2272.0,audio/493_511_B1.wav,k,493.0,511.0,752.0,comfortable,,12wokqv1u0.csv
,,,,,html-keyboard-response,78,2.1.0,239485,67f9b647dcd4755a0f10984c,6969c6242409f4b0184101e3,696aaa1c7a890db34ab30457,,,,,,,,,12wokqv1u0.csv
,,,,,audio-keyboard-response,79,2.1.0,242033,67f9b647dcd4755a0f10984c,6969c6242409f4b0184101e3,696aaa1c7a890db34ab30457,2549.0,audio/672_604_B4.wav,k,672.0,604.0,493.0,comfortable,,12wokqv1u0.csv
,,,,,html-keyboard-response,80,2.1.0,242540,67f9b647dcd4755a0f10984c,6969c6242409f4b0184101e3,696aaa1c7a890db34ab30457,,,,,,,,,12wokqv1u0.csv
,,,,,audio-keyboard-response,81,2.1.0,245389,67f9b647dcd4755a0f10984c,6969c6242409f4b0184101e3,696aaa1c7a890db34ab30457,2851.0,audio/672_537_B1.wav,k,672.0,537.0,672.0,comfortable,,12wokqv1u0.csv
,,,,,html-keyboard-response,82,2.1.0,245892,67f9b647dcd4755a0f10984c,6969c6242409f4b0184101e3,696aaa1c7a890db34ab30457,,,,,,,,,12wokqv1u0.csv
,,,,,audio-keyboard-response,83,2.1.0,248160,67f9b647dcd4755a0f10984c,6969c6242409f4b0184101e3,696aaa1c7a890db34ab30457,2269.0,audio/672_521_B2.wav,k,672.0,521.0,672.0,comfortable,,12wokqv1u0.csv
,,,,,html-keyboard-response,84,2.1.0,248667,67f9b647dcd4755a0f10984c,6969c6242409f4b0184101e3,696aaa1c7a890db34ab30457,,,,,,,,,12wokqv1u0.csv
,,,,,audio-keyboard-response,85,2.1.0,251464,67f9b647dcd4755a0f10984c,6969c6242409f4b0184101e3,696aaa1c7a890db34ab30457,2789.0,audio/493_526_B1.wav,k,493.0,526.0,672.0,comfortable,,12wokqv1u0.csv
,,,,,html-keyboard-response,86,2.1.0,251978,67f9b647dcd4755a0f10984c,6969c6242409f4b0184101e3,696aaa1c7a890db34ab30457,,,,,,,,,12wokqv1u0.csv
,,,,,audio-keyboard-response,87,2.1.0,254720,67f9b647dcd4755a0f10984c,6969c6242409f4b0184101e3,696aaa1c7a890db34ab30457,2741.0,audio/573_608_B3.wav,k,573.0,608.0,493.0,comfortable,,12wokqv1u0.csv
,,,,,html-keyboard-response,88,2.1.0,255222,67f9b647dcd4755a0f10984c,6969c6242409f4b0184101e3,696aaa1c7a890db34ab30457,,,,,,,,,12wokqv1u0.csv
,,,,,audio-keyboard-response,89,2.1.0,258320,67f9b647dcd4755a0f10984c,6969c6242409f4b0184101e3,696aaa1c7a890db34ab30457,3101.0,audio/672_704_B4.wav,k,672.0,704.0,573.0,comfortable,,12wokqv1u0.csv
,,,,,html-keyboard-response,90,2.1.0,258825,67f9b647dcd4755a0f10984c,6969c6242409f4b0184101e3,696aaa1c7a890db34ab30457,,,,,,,,,12wokqv1u0.csv
,,,,,audio-keyboard-response,91,2.1.0,261768,67f9b647dcd4755a0f10984c,6969c6242409f4b0184101e3,696aaa1c7a890db34ab30457,2952.0,audio/752_612_B3.wav,k,752.0,612.0,672.0,comfortable,,12wokqv1u0.csv
,,,,,html-keyboard-response,92,2.1.0,262279,67f9b647dcd4755a0f10984c,6969c6242409f4b0184101e3,696aaa1c7a890db34ab30457,,,,,,,,,12wokqv1u0.csv
,,,,,audio-keyboard-response,93,2.1.0,264761,67f9b647dcd4755a0f10984c,6969c6242409f4b0184101e3,696aaa1c7a890db34ab30457,2480.0,audio/493_513_B1.wav,d,493.0,513.0,752.0,awkward,,12wokqv1u0.csv
,,,,,html-keyboard-response,94,2.1.0,265277,67f9b647dcd4755a0f10984c,6969c6242409f4b0184101e3,696aaa1c7a890db34ab30457,,,,,,,,,12wokqv1u0.csv
,,,,,audio-keyboard-response,95,2.1.0,267402,67f9b647dcd4755a0f10984c,6969c6242409f4b0184101e3,696aaa1c7a890db34ab30457,2120.0,audio/672_524_B2.wav,k,672.0,524.0,493.0,comfortable,,12wokqv1u0.csv
,,,,,html-keyboard-response,96,2.1.0,267919,67f9b647dcd4755a0f10984c,6969c6242409f4b0184101e3,696aaa1c7a890db34ab30457,,,,,,,,,12wokqv1u0.csv
,,,,,audio-keyboard-response,97,2.1.0,270847,67f9b647dcd4755a0f10984c,6969c6242409f4b0184101e3,696aaa1c7a890db34ab30457,2920.0,audio/573_605_B3.wav,k,573.0,605.0,672.0,comfortable,,12wokqv1u0.csv
,,,,,html-keyboard-response,98,2.1.0,271365,67f9b647dcd4755a0f10984c,6969c6242409f4b0184101e3,696aaa1c7a890db34ab30457,,,,,,,,,12wokqv1u0.csv
,,,,,audio-keyboard-response,99,2.1.0,273579,67f9b647dcd4755a0f10984c,6969c6242409f4b0184101e3,696aaa1c7a890db34ab30457,2219.0,audio/493_533_B2.wav,k,493.0,533.0,573.0,comfortable,,12wokqv1u0.csv
,,,,,html-keyboard-response,100,2.1.0,274081,67f9b647dcd4755a0f10984c,6969c6242409f4b0184101e3,696aaa1c7a890db34ab30457,,,,,,,,,12wokqv1u0.csv
,,,,,audio-keyboard-response,101,2.1.0,276389,67f9b647dcd4755a0f10984c,6969c6242409f4b0184101e3,696aaa1c7a890db34ab30457,2309.0,audio/493_512_B1.wav,k,493.0,512.0,493.0,comfortable,,12wokqv1u0.csv
,,,,,html-keyboard-response,102,2.1.0,276897,67f9b647dcd4755a0f10984c,6969c6242409f4b0184101e3,696aaa1c7a890db34ab30457,,,,,,,,,12wokqv1u0.csv
,,,,,audio-keyboard-response,103,2.1.0,280389,67f9b647dcd4755a0f10984c,6969c6242409f4b0184101e3,696aaa1c7a890db34ab30457,3491.0,audio/672_714_B3.wav,d,672.0,714.0,493.0,awkward,,12wokqv1u0.csv
,,,,,html-keyboard-response,104,2.1.0,280904,67f9b647dcd4755a0f10984c,6969c6242409f4b0184101e3,696aaa1c7a890db34ab30457,,,,,,,,,12wokqv1u0.csv
,,,,,audio-keyboard-response,105,2.1.0,283887,67f9b647dcd4755a0f10984c,6969c6242409f4b0184101e3,696aaa1c7a890db34ab30457,2981.0,audio/493_710_B3.wav,k,493.0,710.0,672.0,comfortable,,12wokqv1u0.csv
,,,,,html-keyboard-response,106,2.1.0,284394,67f9b647dcd4755a0f10984c,6969c6242409f4b0184101e3,696aaa1c7a890db34ab30457,,,,,,,,,12wokqv1u0.csv
,,,,,audio-keyboard-response,107,2.1.0,287114,67f9b647dcd4755a0f10984c,6969c6242409f4b0184101e3,696aaa1c7a890db34ab30457,2720.0,audio/493_717_B3.wav,k,493.0,717.0,493.0,comfortable,,12wokqv1u0.csv
,,,,,html-keyboard-response,108,2.1.0,287625,67f9b647dcd4755a0f10984c,6969c6242409f4b0184101e3,696aaa1c7a890db34ab30457,,,,,,,,,12wokqv1u0.csv
,,,,,audio-keyboard-response,109,2.1.0,290471,67f9b647dcd4755a0f10984c,6969c6242409f4b0184101e3,696aaa1c7a890db34ab30457,2851.0,audio/573_725_B3.wav,k,573.0,725.0,493.0,comfortable,,12wokqv1u0.csv
,,,,,html-keyboard-response,110,2.1.0,290973,67f9b647dcd4755a0f10984c,6969c6242409f4b0184101e3,696aaa1c7a890db34ab30457,,,,,,,,,12wokqv1u0.csv
,,,,,audio-keyboard-response,111,2.1.0,293636,67f9b647dcd4755a0f10984c,6969c6242409f4b0184101e3,696aaa1c7a890db34ab30457,2659.0,audio/573_606_B4.wav,k,573.0,606.0,573.0,comfortable,,12wokqv1u0.csv
,,,,,html-keyboard-response,112,2.1.0,294141,67f9b647dcd4755a0f10984c,6969c6242409f4b0184101e3,696aaa1c7a890db34ab30457,,,,,,,,,12wokqv1u0.csv
,,,,,audio-keyboard-response,113,2.1.0,297721,67f9b647dcd4755a0f10984c,6969c6242409f4b0184101e3,696aaa1c7a890db34ab30457,3581.0,audio/493_621_B4.wav,k,493.0,621.0,573.0,comfortable,,12wokqv1u0.csv
,,,,,html-keyboard-response,114,2.1.0,298233,67f9b647dcd4755a0f10984c,6969c6242409f4b0184101e3,696aaa1c7a890db34ab30457,,,,,,,,,12wokqv1u0.csv
,,,,,audio-keyboard-response,115,2.1.0,300519,67f9b647dcd4755a0f10984c,6969c6242409f4b0184101e3,696aaa1c7a890db34ab30457,2291.0,audio/573_614_B3.wav,k,573.0,614.0,493.0,comfortable,,12wokqv1u0.csv
,,,,,html-keyboard-response,116,2.1.0,301032,67f9b647dcd4755a0f10984c,6969c6242409f4b0184101e3,696aaa1c7a890db34ab30457,,,,,,,,,12wokqv1u0.csv
,,,,,audio-keyboard-response,117,2.1.0,303386,67f9b647dcd4755a0f10984c,6969c6242409f4b0184101e3,696aaa1c7a890db34ab30457,2349.0,audio/752_505_B2.wav,d,752.0,505.0,573.0,awkward,,12wokqv1u0.csv
,,,,,html-keyboard-response,118,2.1.0,303903,67f9b647dcd4755a0f10984c,6969c6242409f4b0184101e3,696aaa1c7a890db34ab30457,,,,,,,,,12wokqv1u0.csv
,,,,,audio-keyboard-response,119,2.1.0,305921,67f9b647dcd4755a0f10984c,6969c6242409f4b0184101e3,696aaa1c7a890db34ab30457,2021.0,audio/573_515_B1.wav,k,573.0,515.0,752.0,comfortable,,12wokqv1u0.csv
,,,,,html-keyboard-response,120,2.1.0,306425,67f9b647dcd4755a0f10984c,6969c6242409f4b0184101e3,696aaa1c7a890db34ab30457,,,,,,,,,12wokqv1u0.csv
,,,,,audio-keyboard-response,121,2.1.0,309103,67f9b647dcd4755a0f10984c,6969c6242409f4b0184101e3,696aaa1c7a890db34ab30457,2680.0,audio/493_721_B3.wav,k,493.0,721.0,573.0,comfortable,,12wokqv1u0.csv
,,,,,html-keyboard-response,122,2.1.0,309605,67f9b647dcd4755a0f10984c,6969c6242409f4b0184101e3,696aaa1c7a890db34ab30457,,,,,,,,,12wokqv1u0.csv
,,,,,audio-keyboard-response,123,2.1.0,312739,67f9b647dcd4755a0f10984c,6969c6242409f4b0184101e3,696aaa1c7a890db34ab30457,3139.0,audio/752_713_B4.wav,d,752.0,713.0,493.0,awkward,,12wokqv1u0.csv
,,,,,html-keyboard-response,124,2.1.0,313257,67f9b647dcd4755a0f10984c,6969c6242409f4b0184101e3,696aaa1c7a890db34ab30457,,,,,,,,,12wokqv1u0.csv
,,,,,audio-keyboard-response,125,2.1.0,316714,67f9b647dcd4755a0f10984c,6969c6242409f4b0184101e3,696aaa1c7a890db34ab30457,3451.0,audio/493_723_B3.wav,d,493.0,723.0,752.0,awkward,,12wokqv1u0.csv
,,,,,html-keyboard-response,126,2.1.0,317217,67f9b647dcd4755a0f10984c,6969c6242409f4b0184101e3,696aaa1c7a890db34ab30457,,,,,,,,,12wokqv1u0.csv
,,,,,audio-keyboard-response,127,2.1.0,320290,67f9b647dcd4755a0f10984c,6969c6242409f4b0184101e3,696aaa1c7a890db34ab30457,3072.0,audio/752_727_B4.wav,d,752.0,727.0,493.0,awkward,,12wokqv1u0.csv
,,,,,html-keyboard-response,128,2.1.0,320793,67f9b647dcd4755a0f10984c,6969c6242409f4b0184101e3,696aaa1c7a890db34ab30457,,,,,,,,,12wokqv1u0.csv
,,,,,audio-keyboard-response,129,2.1.0,324409,67f9b647dcd4755a0f10984c,6969c6242409f4b0184101e3,696aaa1c7a890db34ab30457,3621.0,audio/672_719_B4.wav,k,672.0,719.0,752.0,comfortable,,12wokqv1u0.csv
,,,,,html-keyboard-response,130,2.1.0,324917,67f9b647dcd4755a0f10984c,6969c6242409f4b0184101e3,696aaa1c7a890db34ab30457,,,,,,,,,12wokqv1u0.csv
,,,,,audio-keyboard-response,131,2.1.0,327080,67f9b647dcd4755a0f10984c,6969c6242409f4b0184101e3,696aaa1c7a890db34ab30457,2160.0,audio/672_522_B2.wav,k,672.0,522.0,672.0,comfortable,,12wokqv1u0.csv
,,,,,html-keyboard-response,132,2.1.0,327585,67f9b647dcd4755a0f10984c,6969c6242409f4b0184101e3,696aaa1c7a890db34ab30457,,,,,,,,,12wokqv1u0.csv
,,,,,audio-keyboard-response,133,2.1.0,329946,67f9b647dcd4755a0f10984c,6969c6242409f4b0184101e3,696aaa1c7a890db34ab30457,2360.0,audio/573_722_B3.wav,k,573.0,722.0,672.0,comfortable,,12wokqv1u0.csv
,,,,,html-keyboard-response,134,2.1.0,330457,67f9b647dcd4755a0f10984c,6969c6242409f4b0184101e3,696aaa1c7a890db34ab30457,,,,,,,,,12wokqv1u0.csv
,,,,,audio-keyboard-response,135,2.1.0,333245,67f9b647dcd4755a0f10984c,6969c6242409f4b0184101e3,696aaa1c7a890db34ab30457,2781.0,audio/752_613_B3.wav,k,752.0,613.0,573.0,comfortable,,12wokqv1u0.csv
,,,,,html-keyboard-response,136,2.1.0,333751,67f9b647dcd4755a0f10984c,6969c6242409f4b0184101e3,696aaa1c7a890db34ab30457,,,,,,,,,12wokqv1u0.csv
,,,,,audio-keyboard-response,137,2.1.0,335989,67f9b647dcd4755a0f10984c,6969c6242409f4b0184101e3,696aaa1c7a890db34ab30457,2240.0,audio/752_519_B2.wav,k,752.0,519.0,752.0,comfortable,,12wokqv1u0.csv
,,,,,html-keyboard-response,138,2.1.0,336492,67f9b647dcd4755a0f10984c,6969c6242409f4b0184101e3,696aaa1c7a890db34ab30457,,,,,,,,,12wokqv1u0.csv
,,,,,html-keyboard-response,139,2.1.0,339509,67f9b647dcd4755a0f10984c,6969c6242409f4b0184101e3,696aaa1c7a890db34ab30457,,"
  <div class=""header_container""><div class=""header"">BLOCK 2</div></div>
  ",,,,,,,12wokqv1u0.csv
,,,,,audio-keyboard-response,140,2.1.0,342865,67f9b647dcd4755a0f10984c,6969c6242409f4b0184101e3,696aaa1c7a890db34ab30457,3349.0,audio/573_513_B1.wav,k,573.0,513.0,752.0,unfriendly,,12wokqv1u0.csv
,,,,,html-keyboard-response,141,2.1.0,343373,67f9b647dcd4755a0f10984c,6969c6242409f4b0184101e3,696aaa1c7a890db34ab30457,,,,,,,,,12wokqv1u0.csv
,,,,,audio-keyboard-response,142,2.1.0,346370,67f9b647dcd4755a0f10984c,6969c6242409f4b0184101e3,696aaa1c7a890db34ab30457,3000.0,audio/573_624_redo2.wav,k,573.0,624.0,573.0,unfriendly,,12wokqv1u0.csv
,,,,,html-keyboard-response,143,2.1.0,346887,67f9b647dcd4755a0f10984c,6969c6242409f4b0184101e3,696aaa1c7a890db34ab30457,,,,,,,,,12wokqv1u0.csv
,,,,,audio-keyboard-response,144,2.1.0,349100,67f9b647dcd4755a0f10984c,6969c6242409f4b0184101e3,696aaa1c7a890db34ab30457,2208.0,audio/573_538_redo2.wav,k,573.0,538.0,573.0,unfriendly,,12wokqv1u0.csv
,,,,,html-keyboard-response,145,2.1.0,349602,67f9b647dcd4755a0f10984c,6969c6242409f4b0184101e3,696aaa1c7a890db34ab30457,,,,,,,,,12wokqv1u0.csv
,,,,,audio-keyboard-response,146,2.1.0,352544,67f9b647dcd4755a0f10984c,6969c6242409f4b0184101e3,696aaa1c7a890db34ab30457,2939.0,audio/493_707_B3.wav,k,493.0,707.0,573.0,unfriendly,,12wokqv1u0.csv
,,,,,html-keyboard-response,147,2.1.0,353051,67f9b647dcd4755a0f10984c,6969c6242409f4b0184101e3,696aaa1c7a890db34ab30457,,,,,,,,,12wokqv1u0.csv
,,,,,audio-keyboard-response,148,2.1.0,356623,67f9b647dcd4755a0f10984c,6969c6242409f4b0184101e3,696aaa1c7a890db34ab30457,3568.0,audio/573_705_B3.wav,k,573.0,705.0,493.0,unfriendly,,12wokqv1u0.csv
,,,,,html-keyboard-response,149,2.1.0,357135,67f9b647dcd4755a0f10984c,6969c6242409f4b0184101e3,696aaa1c7a890db34ab30457,,,,,,,,,12wokqv1u0.csv
,,,,,audio-keyboard-response,150,2.1.0,359765,67f9b647dcd4755a0f10984c,6969c6242409f4b0184101e3,696aaa1c7a890db34ab30457,2629.0,audio/573_616_B3.wav,k,573.0,616.0,573.0,unfriendly,,12wokqv1u0.csv
,,,,,html-keyboard-response,151,2.1.0,360279,67f9b647dcd4755a0f10984c,6969c6242409f4b0184101e3,696aaa1c7a890db34ab30457,,,,,,,,,12wokqv1u0.csv
,,,,,audio-keyboard-response,152,2.1.0,363630,67f9b647dcd4755a0f10984c,6969c6242409f4b0184101e3,696aaa1c7a890db34ab30457,3349.0,audio/493_612_B3.wav,d,493.0,612.0,573.0,friendly,,12wokqv1u0.csv
,,,,,html-keyboard-response,153,2.1.0,364141,67f9b647dcd4755a0f10984c,6969c6242409f4b0184101e3,696aaa1c7a890db34ab30457,,,,,,,,,12wokqv1u0.csv
,,,,,audio-keyboard-response,154,2.1.0,366462,67f9b647dcd4755a0f10984c,6969c6242409f4b0184101e3,696aaa1c7a890db34ab30457,2320.0,audio/493_534_B1.wav,d,493.0,534.0,493.0,friendly,,12wokqv1u0.csv
,,,,,html-keyboard-response,155,2.1.0,366971,67f9b647dcd4755a0f10984c,6969c6242409f4b0184101e3,696aaa1c7a890db34ab30457,,,,,,,,,12wokqv1u0.csv
,,,,,audio-keyboard-response,156,2.1.0,369284,67f9b647dcd4755a0f10984c,6969c6242409f4b0184101e3,696aaa1c7a890db34ab30457,2309.0,audio/493_519_redo2.wav,d,493.0,519.0,493.0,friendly,,12wokqv1u0.csv
,,,,,html-keyboard-response,157,2.1.0,369795,67f9b647dcd4755a0f10984c,6969c6242409f4b0184101e3,696aaa1c7a890db34ab30457,,,,,,,,,12wokqv1u0.csv
,,,,,audio-keyboard-response,158,2.1.0,372509,67f9b647dcd4755a0f10984c,6969c6242409f4b0184101e3,696aaa1c7a890db34ab30457,2709.0,audio/752_609_B4.wav,k,752.0,609.0,493.0,unfriendly,,12wokqv1u0.csv
,,,,,html-keyboard-response,159,2.1.0,373025,67f9b647dcd4755a0f10984c,6969c6242409f4b0184101e3,696aaa1c7a890db34ab30457,,,,,,,,,12wokqv1u0.csv
,,,,,audio-keyboard-response,160,2.1.0,375631,67f9b647dcd4755a0f10984c,6969c6242409f4b0184101e3,696aaa1c7a890db34ab30457,2611.0,audio/672_520_B2.wav,d,672.0,520.0,752.0,friendly,,12wokqv1u0.csv
,,,,,html-keyboard-response,161,2.1.0,376132,67f9b647dcd4755a0f10984c,6969c6242409f4b0184101e3,696aaa1c7a890db34ab30457,,,,,,,,,12wokqv1u0.csv
,,,,,audio-keyboard-response,162,2.1.0,378488,67f9b647dcd4755a0f10984c,6969c6242409f4b0184101e3,696aaa1c7a890db34ab30457,2349.0,audio/493_505_B1.wav,k,493.0,505.0,672.0,unfriendly,,12wokqv1u0.csv
,,,,,html-keyboard-response,163,2.1.0,378993,67f9b647dcd4755a0f10984c,6969c6242409f4b0184101e3,696aaa1c7a890db34ab30457,,,,,,,,,12wokqv1u0.csv
,,,,,audio-keyboard-response,164,2.1.0,380698,67f9b647dcd4755a0f10984c,6969c6242409f4b0184101e3,696aaa1c7a890db34ab30457,1709.0,audio/573_516_B1.wav,k,573.0,516.0,493.0,unfriendly,,12wokqv1u0.csv
,,,,,html-keyboard-response,165,2.1.0,381215,67f9b647dcd4755a0f10984c,6969c6242409f4b0184101e3,696aaa1c7a890db34ab30457,,,,,,,,,12wokqv1u0.csv
,,,,,audio-keyboard-response,166,2.1.0,385055,67f9b647dcd4755a0f10984c,6969c6242409f4b0184101e3,696aaa1c7a890db34ab30457,3840.0,audio/493_515_B2.wav,d,493.0,515.0,573.0,friendly,,12wokqv1u0.csv
,,,,,html-keyboard-response,167,2.1.0,385567,67f9b647dcd4755a0f10984c,6969c6242409f4b0184101e3,696aaa1c7a890db34ab30457,,,,,,,,,12wokqv1u0.csv
,,,,,audio-keyboard-response,168,2.1.0,388343,67f9b647dcd4755a0f10984c,6969c6242409f4b0184101e3,696aaa1c7a890db34ab30457,2768.0,audio/573_724_B3.wav,d,573.0,724.0,493.0,friendly,,12wokqv1u0.csv
,,,,,html-keyboard-response,169,2.1.0,388854,67f9b647dcd4755a0f10984c,6969c6242409f4b0184101e3,696aaa1c7a890db34ab30457,,,,,,,,,12wokqv1u0.csv
,,,,,audio-keyboard-response,170,2.1.0,391009,67f9b647dcd4755a0f10984c,6969c6242409f4b0184101e3,696aaa1c7a890db34ab30457,2160.0,audio/752_722_B4.wav,d,752.0,722.0,573.0,friendly,,12wokqv1u0.csv
,,,,,html-keyboard-response,171,2.1.0,391527,67f9b647dcd4755a0f10984c,6969c6242409f4b0184101e3,696aaa1c7a890db34ab30457,,,,,,,,,12wokqv1u0.csv
,,,,,audio-keyboard-response,172,2.1.0,394045,67f9b647dcd4755a0f10984c,6969c6242409f4b0184101e3,696aaa1c7a890db34ab30457,2509.0,audio/573_617_B3.wav,d,573.0,617.0,752.0,friendly,,12wokqv1u0.csv
,,,,,html-keyboard-response,173,2.1.0,394553,67f9b647dcd4755a0f10984c,6969c6242409f4b0184101e3,696aaa1c7a890db34ab30457,,,,,,,,,12wokqv1u0.csv
,,,,,audio-keyboard-response,174,2.1.0,397375,67f9b647dcd4755a0f10984c,6969c6242409f4b0184101e3,696aaa1c7a890db34ab30457,2821.0,audio/672_625_B3.wav,d,672.0,625.0,573.0,friendly,,12wokqv1u0.csv
,,,,,html-keyboard-response,175,2.1.0,397880,67f9b647dcd4755a0f10984c,6969c6242409f4b0184101e3,696aaa1c7a890db34ab30457,,,,,,,,,12wokqv1u0.csv
,,,,,audio-keyboard-response,176,2.1.0,400061,67f9b647dcd4755a0f10984c,6969c6242409f4b0184101e3,696aaa1c7a890db34ab30457,2179.0,audio/752_621_B4.wav,k,752.0,621.0,672.0,unfriendly,,12wokqv1u0.csv
,,,,,html-keyboard-response,177,2.1.0,400565,67f9b647dcd4755a0f10984c,6969c6242409f4b0184101e3,696aaa1c7a890db34ab30457,,,,,,,,,12wokqv1u0.csv
,,,,,audio-keyboard-response,178,2.1.0,403756,67f9b647dcd4755a0f10984c,6969c6242409f4b0184101e3,696aaa1c7a890db34ab30457,3189.0,audio/672_619_B4.wav,k,672.0,619.0,752.0,unfriendly,,12wokqv1u0.csv
,,,,,html-keyboard-response,179,2.1.0,404262,67f9b647dcd4755a0f10984c,6969c6242409f4b0184101e3,696aaa1c7a890db34ab30457,,,,,,,,,12wokqv1u0.csv
,,,,,audio-keyboard-response,180,2.1.0,406469,67f9b647dcd4755a0f10984c,6969c6242409f4b0184101e3,696aaa1c7a890db34ab30457,2211.0,audio/752_708_B4.wav,k,752.0,708.0,672.0,unfriendly,,12wokqv1u0.csv
,,,,,html-keyboard-response,181,2.1.0,406971,67f9b647dcd4755a0f10984c,6969c6242409f4b0184101e3,696aaa1c7a890db34ab30457,,,,,,,,,12wokqv1u0.csv
,,,,,audio-keyboard-response,182,2.1.0,409571,67f9b647dcd4755a0f10984c,6969c6242409f4b0184101e3,696aaa1c7a890db34ab30457,2600.0,audio/752_607_B4.wav,k,752.0,607.0,752.0,unfriendly,,12wokqv1u0.csv
,,,,,html-keyboard-response,183,2.1.0,410080,67f9b647dcd4755a0f10984c,6969c6242409f4b0184101e3,696aaa1c7a890db34ab30457,,,,,,,,,12wokqv1u0.csv
,,,,,audio-keyboard-response,184,2.1.0,413221,67f9b647dcd4755a0f10984c,6969c6242409f4b0184101e3,696aaa1c7a890db34ab30457,3139.0,audio/672_537_B1.wav,d,672.0,537.0,752.0,friendly,,12wokqv1u0.csv
,,,,,html-keyboard-response,185,2.1.0,413737,67f9b647dcd4755a0f10984c,6969c6242409f4b0184101e3,696aaa1c7a890db34ab30457,,,,,,,,,12wokqv1u0.csv
,,,,,audio-keyboard-response,186,2.1.0,415030,67f9b647dcd4755a0f10984c,6969c6242409f4b0184101e3,696aaa1c7a890db34ab30457,1291.0,audio/672_721_B3.wav,d,672.0,721.0,672.0,friendly,,12wokqv1u0.csv
,,,,,html-keyboard-response,187,2.1.0,415536,67f9b647dcd4755a0f10984c,6969c6242409f4b0184101e3,696aaa1c7a890db34ab30457,,,,,,,,,12wokqv1u0.csv
,,,,,audio-keyboard-response,188,2.1.0,418068,67f9b647dcd4755a0f10984c,6969c6242409f4b0184101e3,696aaa1c7a890db34ab30457,2531.0,audio/573_618_B3.wav,k,573.0,618.0,672.0,unfriendly,,12wokqv1u0.csv
,,,,,html-keyboard-response,189,2.1.0,418577,67f9b647dcd4755a0f10984c,6969c6242409f4b0184101e3,696aaa1c7a890db34ab30457,,,,,,,,,12wokqv1u0.csv
,,,,,audio-keyboard-response,190,2.1.0,421224,67f9b647dcd4755a0f10984c,6969c6242409f4b0184101e3,696aaa1c7a890db34ab30457,2640.0,audio/752_524_B2.wav,k,752.0,524.0,573.0,unfriendly,,12wokqv1u0.csv
,,,,,html-keyboard-response,191,2.1.0,421740,67f9b647dcd4755a0f10984c,6969c6242409f4b0184101e3,696aaa1c7a890db34ab30457,,,,,,,,,12wokqv1u0.csv
,,,,,audio-keyboard-response,192,2.1.0,424369,67f9b647dcd4755a0f10984c,6969c6242409f4b0184101e3,696aaa1c7a890db34ab30457,2632.0,audio/493_610_B3.wav,d,493.0,610.0,752.0,friendly,,12wokqv1u0.csv
,,,,,html-keyboard-response,193,2.1.0,424870,67f9b647dcd4755a0f10984c,6969c6242409f4b0184101e3,696aaa1c7a890db34ab30457,,,,,,,,,12wokqv1u0.csv
,,,,,audio-keyboard-response,194,2.1.0,427010,67f9b647dcd4755a0f10984c,6969c6242409f4b0184101e3,696aaa1c7a890db34ab30457,2141.0,audio/672_508_B2.wav,d,672.0,508.0,493.0,friendly,,12wokqv1u0.csv
,,,,,html-keyboard-response,195,2.1.0,427521,67f9b647dcd4755a0f10984c,6969c6242409f4b0184101e3,696aaa1c7a890db34ab30457,,,,,,,,,12wokqv1u0.csv
,,,,,audio-keyboard-response,196,2.1.0,429467,67f9b647dcd4755a0f10984c,6969c6242409f4b0184101e3,696aaa1c7a890db34ab30457,1939.0,audio/493_511_B1.wav,k,493.0,511.0,672.0,unfriendly,,12wokqv1u0.csv
,,,,,html-keyboard-response,197,2.1.0,429981,67f9b647dcd4755a0f10984c,6969c6242409f4b0184101e3,696aaa1c7a890db34ab30457,,,,,,,,,12wokqv1u0.csv
,,,,,audio-keyboard-response,198,2.1.0,431198,67f9b647dcd4755a0f10984c,6969c6242409f4b0184101e3,696aaa1c7a890db34ab30457,1221.0,audio/493_535_B2.wav,k,493.0,535.0,493.0,unfriendly,,12wokqv1u0.csv
,,,,,html-keyboard-response,199,2.1.0,431704,67f9b647dcd4755a0f10984c,6969c6242409f4b0184101e3,696aaa1c7a890db34ab30457,,,,,,,,,12wokqv1u0.csv
,,,,,audio-keyboard-response,200,2.1.0,434241,67f9b647dcd4755a0f10984c,6969c6242409f4b0184101e3,696aaa1c7a890db34ab30457,2541.0,audio/752_506_B2.wav,k,752.0,506.0,493.0,unfriendly,,12wokqv1u0.csv
,,,,,html-keyboard-response,201,2.1.0,434754,67f9b647dcd4755a0f10984c,6969c6242409f4b0184101e3,696aaa1c7a890db34ab30457,,,,,,,,,12wokqv1u0.csv
,,,,,audio-keyboard-response,202,2.1.0,437756,67f9b647dcd4755a0f10984c,6969c6242409f4b0184101e3,696aaa1c7a890db34ab30457,3000.0,audio/672_709_B4.wav,d,672.0,709.0,752.0,friendly,,12wokqv1u0.csv
,,,,,html-keyboard-response,203,2.1.0,438268,67f9b647dcd4755a0f10984c,6969c6242409f4b0184101e3,696aaa1c7a890db34ab30457,,,,,,,,,12wokqv1u0.csv
,,,,,audio-keyboard-response,204,2.1.0,440225,67f9b647dcd4755a0f10984c,6969c6242409f4b0184101e3,696aaa1c7a890db34ab30457,1949.0,audio/752_604_B4.wav,k,752.0,604.0,672.0,unfriendly,,12wokqv1u0.csv
,,,,,html-keyboard-response,205,2.1.0,440742,67f9b647dcd4755a0f10984c,6969c6242409f4b0184101e3,696aaa1c7a890db34ab30457,,,,,,,,,12wokqv1u0.csv
,,,,,audio-keyboard-response,206,2.1.0,442979,67f9b647dcd4755a0f10984c,6969c6242409f4b0184101e3,696aaa1c7a890db34ab30457,2240.0,audio/752_523_B2.wav,k,752.0,523.0,752.0,unfriendly,,12wokqv1u0.csv
,,,,,html-keyboard-response,207,2.1.0,443494,67f9b647dcd4755a0f10984c,6969c6242409f4b0184101e3,696aaa1c7a890db34ab30457,,,,,,,,,12wokqv1u0.csv
,,,,,audio-keyboard-response,208,2.1.0,447709,67f9b647dcd4755a0f10984c,6969c6242409f4b0184101e3,696aaa1c7a890db34ab30457,4219.0,audio/672_715_B4.wav,k,672.0,715.0,752.0,unfriendly,,12wokqv1u0.csv
,,,,,html-keyboard-response,209,2.1.0,448226,67f9b647dcd4755a0f10984c,6969c6242409f4b0184101e3,696aaa1c7a890db34ab30457,,,,,,,,,12wokqv1u0.csv
,,,,,audio-keyboard-response,210,2.1.0,449622,67f9b647dcd4755a0f10984c,6969c6242409f4b0184101e3,696aaa1c7a890db34ab30457,1400.0,audio/573_608_B3.wav,k,573.0,608.0,672.0,unfriendly,,12wokqv1u0.csv
,,,,,html-keyboard-response,211,2.1.0,450129,67f9b647dcd4755a0f10984c,6969c6242409f4b0184101e3,696aaa1c7a890db34ab30457,,,,,,,,,12wokqv1u0.csv
,,,,,audio-keyboard-response,212,2.1.0,452393,67f9b647dcd4755a0f10984c,6969c6242409f4b0184101e3,696aaa1c7a890db34ab30457,2259.0,audio/672_620_B3.wav,d,672.0,620.0,573.0,friendly,,12wokqv1u0.csv
,,,,,html-keyboard-response,213,2.1.0,452908,67f9b647dcd4755a0f10984c,6969c6242409f4b0184101e3,696aaa1c7a890db34ab30457,,,,,,,,,12wokqv1u0.csv
,,,,,audio-keyboard-response,214,2.1.0,454588,67f9b647dcd4755a0f10984c,6969c6242409f4b0184101e3,696aaa1c7a890db34ab30457,1680.0,audio/672_533_B2.wav,d,672.0,533.0,672.0,friendly,,12wokqv1u0.csv
,,,,,html-keyboard-response,215,2.1.0,455103,67f9b647dcd4755a0f10984c,6969c6242409f4b0184101e3,696aaa1c7a890db34ab30457,,,,,,,,,12wokqv1u0.csv
,,,,,audio-keyboard-response,216,2.1.0,456551,67f9b647dcd4755a0f10984c,6969c6242409f4b0184101e3,696aaa1c7a890db34ab30457,1451.0,audio/752_611_B3.wav,k,752.0,611.0,672.0,unfriendly,,12wokqv1u0.csv
,,,,,html-keyboard-response,217,2.1.0,457054,67f9b647dcd4755a0f10984c,6969c6242409f4b0184101e3,696aaa1c7a890db34ab30457,,,,,,,,,12wokqv1u0.csv
,,,,,audio-keyboard-response,218,2.1.0,458840,67f9b647dcd4755a0f10984c,6969c6242409f4b0184101e3,696aaa1c7a890db34ab30457,1789.0,audio/493_726_B3.wav,k,493.0,726.0,752.0,unfriendly,,12wokqv1u0.csv
,,,,,html-keyboard-response,219,2.1.0,459348,67f9b647dcd4755a0f10984c,6969c6242409f4b0184101e3,696aaa1c7a890db34ab30457,,,,,,,,,12wokqv1u0.csv
,,,,,audio-keyboard-response,220,2.1.0,461771,67f9b647dcd4755a0f10984c,6969c6242409f4b0184101e3,696aaa1c7a890db34ab30457,2421.0,audio/493_509_redo2.wav,k,493.0,509.0,493.0,unfriendly,,12wokqv1u0.csv
,,,,,html-keyboard-response,221,2.1.0,462288,67f9b647dcd4755a0f10984c,6969c6242409f4b0184101e3,696aaa1c7a890db34ab30457,,,,,,,,,12wokqv1u0.csv
,,,,,audio-keyboard-response,222,2.1.0,463952,67f9b647dcd4755a0f10984c,6969c6242409f4b0184101e3,696aaa1c7a890db34ab30457,1659.0,audio/672_725_B4.wav,d,672.0,725.0,493.0,friendly,,12wokqv1u0.csv
,,,,,html-keyboard-response,223,2.1.0,464454,67f9b647dcd4755a0f10984c,6969c6242409f4b0184101e3,696aaa1c7a890db34ab30457,,,,,,,,,12wokqv1u0.csv
,,,,,audio-keyboard-response,224,2.1.0,466284,67f9b647dcd4755a0f10984c,6969c6242409f4b0184101e3,696aaa1c7a890db34ab30457,1829.0,audio/752_510_B2.wav,k,752.0,510.0,672.0,unfriendly,,12wokqv1u0.csv
,,,,,html-keyboard-response,225,2.1.0,466794,67f9b647dcd4755a0f10984c,6969c6242409f4b0184101e3,696aaa1c7a890db34ab30457,,,,,,,,,12wokqv1u0.csv
,,,,,audio-keyboard-response,226,2.1.0,468354,67f9b647dcd4755a0f10984c,6969c6242409f4b0184101e3,696aaa1c7a890db34ab30457,1560.0,audio/573_614_B3.wav,k,573.0,614.0,752.0,unfriendly,,12wokqv1u0.csv
,,,,,html-keyboard-response,227,2.1.0,468867,67f9b647dcd4755a0f10984c,6969c6242409f4b0184101e3,696aaa1c7a890db34ab30457,,,,,,,,,12wokqv1u0.csv
,,,,,audio-keyboard-response,228,2.1.0,470298,67f9b647dcd4755a0f10984c,6969c6242409f4b0184101e3,696aaa1c7a890db34ab30457,1429.0,audio/573_521_B2.wav,k,573.0,521.0,573.0,unfriendly,,12wokqv1u0.csv
,,,,,html-keyboard-response,229,2.1.0,470801,67f9b647dcd4755a0f10984c,6969c6242409f4b0184101e3,696aaa1c7a890db34ab30457,,,,,,,,,12wokqv1u0.csv
,,,,,audio-keyboard-response,230,2.1.0,473075,67f9b647dcd4755a0f10984c,6969c6242409f4b0184101e3,696aaa1c7a890db34ab30457,2269.0,audio/672_507_B2.wav,d,672.0,507.0,573.0,friendly,,12wokqv1u0.csv
,,,,,html-keyboard-response,231,2.1.0,473590,67f9b647dcd4755a0f10984c,6969c6242409f4b0184101e3,696aaa1c7a890db34ab30457,,,,,,,,,12wokqv1u0.csv
,,,,,audio-keyboard-response,232,2.1.0,475343,67f9b647dcd4755a0f10984c,6969c6242409f4b0184101e3,696aaa1c7a890db34ab30457,1749.0,audio/493_606_B3.wav,k,493.0,606.0,672.0,unfriendly,,12wokqv1u0.csv
,,,,,html-keyboard-response,233,2.1.0,475860,67f9b647dcd4755a0f10984c,6969c6242409f4b0184101e3,696aaa1c7a890db34ab30457,,,,,,,,,12wokqv1u0.csv
,,,,,audio-keyboard-response,234,2.1.0,478465,67f9b647dcd4755a0f10984c,6969c6242409f4b0184101e3,696aaa1c7a890db34ab30457,2600.0,audio/752_719_B4.wav,k,752.0,719.0,493.0,unfriendly,,12wokqv1u0.csv
,,,,,html-keyboard-response,235,2.1.0,478967,67f9b647dcd4755a0f10984c,6969c6242409f4b0184101e3,696aaa1c7a890db34ab30457,,,,,,,,,12wokqv1u0.csv
,,,,,html-button-response,236,2.1.0,482967,67f9b647dcd4755a0f10984c,6969c6242409f4b0184101e3,696aaa1c7a890db34ab30457,3997.0,This is an attention check. Please select which labels you were using in the previous block.,2,,,,,True,12wokqv1u0.csv
,,,,,html-keyboard-response,237,2.1.0,485983,67f9b647dcd4755a0f10984c,6969c6242409f4b0184101e3,696aaa1c7a890db34ab30457,,"
  <div class=""header_container""><div class=""header"">BLOCK 3</div></div>
  ",,,,,,,12wokqv1u0.csv
,,,,,audio-keyboard-response,238,2.1.0,489009,67f9b647dcd4755a0f10984c,6969c6242409f4b0184101e3,696aaa1c7a890db34ab30457,3032.0,audio/672_511_B1.wav,k,672.0,511.0,752.0,robotic,,12wokqv1u0.csv
,,,,,html-keyboard-response,239,2.1.0,489515,67f9b647dcd4755a0f10984c,6969c6242409f4b0184101e3,696aaa1c7a890db34ab30457,,,,,,,,,12wokqv1u0.csv
,,,,,audio-keyboard-response,240,2.1.0,491510,67f9b647dcd4755a0f10984c,6969c6242409f4b0184101e3,696aaa1c7a890db34ab30457,2000.0,audio/752_526_B2.wav,k,752.0,526.0,672.0,robotic,,12wokqv1u0.csv
,,,,,html-keyboard-response,241,2.1.0,492021,67f9b647dcd4755a0f10984c,6969c6242409f4b0184101e3,696aaa1c7a890db34ab30457,,,,,,,,,12wokqv1u0.csv
,,,,,audio-keyboard-response,242,2.1.0,493171,67f9b647dcd4755a0f10984c,6969c6242409f4b0184101e3,696aaa1c7a890db34ab30457,1152.0,audio/752_611_B3.wav,k,752.0,611.0,752.0,robotic,,12wokqv1u0.csv
,,,,,html-keyboard-response,243,2.1.0,493689,67f9b647dcd4755a0f10984c,6969c6242409f4b0184101e3,696aaa1c7a890db34ab30457,,,,,,,,,12wokqv1u0.csv
,,,,,audio-keyboard-response,244,2.1.0,496302,67f9b647dcd4755a0f10984c,6969c6242409f4b0184101e3,696aaa1c7a890db34ab30457,2608.0,audio/672_717_B4.wav,d,672.0,717.0,752.0,emotive,,12wokqv1u0.csv
,,,,,html-keyboard-response,245,2.1.0,496820,67f9b647dcd4755a0f10984c,6969c6242409f4b0184101e3,696aaa1c7a890db34ab30457,,,,,,,,,12wokqv1u0.csv
,,,,,audio-keyboard-response,246,2.1.0,498423,67f9b647dcd4755a0f10984c,6969c6242409f4b0184101e3,696aaa1c7a890db34ab30457,1600.0,audio/672_724_B4.wav,d,672.0,724.0,672.0,emotive,,12wokqv1u0.csv
,,,,,html-keyboard-response,247,2.1.0,498934,67f9b647dcd4755a0f10984c,6969c6242409f4b0184101e3,696aaa1c7a890db34ab30457,,,,,,,,,12wokqv1u0.csv
,,,,,audio-keyboard-response,248,2.1.0,500437,67f9b647dcd4755a0f10984c,6969c6242409f4b0184101e3,696aaa1c7a890db34ab30457,1499.0,audio/672_605_B4.wav,d,672.0,605.0,672.0,emotive,,12wokqv1u0.csv
,,,,,html-keyboard-response,249,2.1.0,500942,67f9b647dcd4755a0f10984c,6969c6242409f4b0184101e3,696aaa1c7a890db34ab30457,,,,,,,,,12wokqv1u0.csv
,,,,,audio-keyboard-response,250,2.1.0,502368,67f9b647dcd4755a0f10984c,6969c6242409f4b0184101e3,696aaa1c7a890db34ab30457,1432.0,audio/493_521_B2.wav,k,493.0,521.0,672.0,robotic,,12wokqv1u0.csv
,,,,,html-keyboard-response,251,2.1.0,502871,67f9b647dcd4755a0f10984c,6969c6242409f4b0184101e3,696aaa1c7a890db34ab30457,,,,,,,,,12wokqv1u0.csv
,,,,,audio-keyboard-response,252,2.1.0,504650,67f9b647dcd4755a0f10984c,6969c6242409f4b0184101e3,696aaa1c7a890db34ab30457,1781.0,audio/573_538_redo2.wav,k,573.0,538.0,493.0,robotic,,12wokqv1u0.csv
,,,,,html-keyboard-response,253,2.1.0,505157,67f9b647dcd4755a0f10984c,6969c6242409f4b0184101e3,696aaa1c7a890db34ab30457,,,,,,,,,12wokqv1u0.csv
,,,,,audio-keyboard-response,254,2.1.0,507484,67f9b647dcd4755a0f10984c,6969c6242409f4b0184101e3,696aaa1c7a890db34ab30457,2320.0,audio/752_608_B4.wav,d,752.0,608.0,573.0,emotive,,12wokqv1u0.csv
,,,,,html-keyboard-response,255,2.1.0,507988,67f9b647dcd4755a0f10984c,6969c6242409f4b0184101e3,696aaa1c7a890db34ab30457,,,,,,,,,12wokqv1u0.csv
,,,,,audio-keyboard-response,256,2.1.0,510027,67f9b647dcd4755a0f10984c,6969c6242409f4b0184101e3,696aaa1c7a890db34ab30457,2040.0,audio/752_727_B4.wav,k,752.0,727.0,752.0,robotic,,12wokqv1u0.csv
,,,,,html-keyboard-response,257,2.1.0,510538,67f9b647dcd4755a0f10984c,6969c6242409f4b0184101e3,696aaa1c7a890db34ab30457,,,,,,,,,12wokqv1u0.csv
,,,,,audio-keyboard-response,258,2.1.0,512659,67f9b647dcd4755a0f10984c,6969c6242409f4b0184101e3,696aaa1c7a890db34ab30457,2120.0,audio/752_612_B3.wav,k,752.0,612.0,752.0,robotic,,12wokqv1u0.csv
,,,,,html-keyboard-response,259,2.1.0,513169,67f9b647dcd4755a0f10984c,6969c6242409f4b0184101e3,696aaa1c7a890db34ab30457,,,,,,,,,12wokqv1u0.csv
,,,,,audio-keyboard-response,260,2.1.0,515582,67f9b647dcd4755a0f10984c,6969c6242409f4b0184101e3,696aaa1c7a890db34ab30457,2408.0,audio/493_614_B3.wav,d,493.0,614.0,752.0,emotive,,12wokqv1u0.csv
,,,,,html-keyboard-response,261,2.1.0,516087,67f9b647dcd4755a0f10984c,6969c6242409f4b0184101e3,696aaa1c7a890db34ab30457,,,,,,,,,12wokqv1u0.csv
,,,,,audio-keyboard-response,262,2.1.0,517728,67f9b647dcd4755a0f10984c,6969c6242409f4b0184101e3,696aaa1c7a890db34ab30457,1640.0,audio/573_522_B1.wav,d,573.0,522.0,493.0,emotive,,12wokqv1u0.csv
,,,,,html-keyboard-response,263,2.1.0,518237,67f9b647dcd4755a0f10984c,6969c6242409f4b0184101e3,696aaa1c7a890db34ab30457,,,,,,,,,12wokqv1u0.csv
,,,,,audio-keyboard-response,264,2.1.0,519957,67f9b647dcd4755a0f10984c,6969c6242409f4b0184101e3,696aaa1c7a890db34ab30457,1709.0,audio/573_616_B3.wav,d,573.0,616.0,573.0,emotive,,12wokqv1u0.csv
,,,,,html-keyboard-response,265,2.1.0,520467,67f9b647dcd4755a0f10984c,6969c6242409f4b0184101e3,696aaa1c7a890db34ab30457,,,,,,,,,12wokqv1u0.csv
,,,,,audio-keyboard-response,266,2.1.0,521971,67f9b647dcd4755a0f10984c,6969c6242409f4b0184101e3,696aaa1c7a890db34ab30457,1501.0,audio/573_607_B4.wav,k,573.0,607.0,573.0,robotic,,12wokqv1u0.csv
,,,,,html-keyboard-response,267,2.1.0,522479,67f9b647dcd4755a0f10984c,6969c6242409f4b0184101e3,696aaa1c7a890db34ab30457,,,,,,,,,12wokqv1u0.csv
,,,,,audio-keyboard-response,268,2.1.0,524422,67f9b647dcd4755a0f10984c,6969c6242409f4b0184101e3,696aaa1c7a890db34ab30457,1939.0,audio/752_513_B2.wav,k,752.0,513.0,573.0,robotic,,12wokqv1u0.csv
,,,,,html-keyboard-response,269,2.1.0,524938,67f9b647dcd4755a0f10984c,6969c6242409f4b0184101e3,696aaa1c7a890db34ab30457,,,,,,,,,12wokqv1u0.csv
,,,,,audio-keyboard-response,270,2.1.0,527253,67f9b647dcd4755a0f10984c,6969c6242409f4b0184101e3,696aaa1c7a890db34ab30457,2312.0,audio/672_524_B2.wav,k,672.0,524.0,752.0,robotic,,12wokqv1u0.csv
,,,,,html-keyboard-response,271,2.1.0,527768,67f9b647dcd4755a0f10984c,6969c6242409f4b0184101e3,696aaa1c7a890db34ab30457,,,,,,,,,12wokqv1u0.csv
,,,,,audio-keyboard-response,272,2.1.0,531014,67f9b647dcd4755a0f10984c,6969c6242409f4b0184101e3,696aaa1c7a890db34ab30457,3240.0,audio/493_720_B3.wav,k,493.0,720.0,672.0,robotic,,12wokqv1u0.csv
,,,,,html-keyboard-response,273,2.1.0,531527,67f9b647dcd4755a0f10984c,6969c6242409f4b0184101e3,696aaa1c7a890db34ab30457,,,,,,,,,12wokqv1u0.csv
,,,,,audio-keyboard-response,274,2.1.0,533611,67f9b647dcd4755a0f10984c,6969c6242409f4b0184101e3,696aaa1c7a890db34ab30457,2080.0,audio/672_622_B3.wav,d,672.0,622.0,493.0,emotive,,12wokqv1u0.csv
,,,,,html-keyboard-response,275,2.1.0,534115,67f9b647dcd4755a0f10984c,6969c6242409f4b0184101e3,696aaa1c7a890db34ab30457,,,,,,,,,12wokqv1u0.csv
,,,,,audio-keyboard-response,276,2.1.0,535720,67f9b647dcd4755a0f10984c,6969c6242409f4b0184101e3,696aaa1c7a890db34ab30457,1611.0,audio/573_609_B4.wav,k,573.0,609.0,672.0,robotic,,12wokqv1u0.csv
,,,,,html-keyboard-response,277,2.1.0,536238,67f9b647dcd4755a0f10984c,6969c6242409f4b0184101e3,696aaa1c7a890db34ab30457,,,,,,,,,12wokqv1u0.csv
,,,,,audio-keyboard-response,278,2.1.0,538581,67f9b647dcd4755a0f10984c,6969c6242409f4b0184101e3,696aaa1c7a890db34ab30457,2339.0,audio/573_512_B1.wav,k,573.0,512.0,573.0,robotic,,12wokqv1u0.csv
,,,,,html-keyboard-response,279,2.1.0,539093,67f9b647dcd4755a0f10984c,6969c6242409f4b0184101e3,696aaa1c7a890db34ab30457,,,,,,,,,12wokqv1u0.csv
,,,,,audio-keyboard-response,280,2.1.0,540691,67f9b647dcd4755a0f10984c,6969c6242409f4b0184101e3,696aaa1c7a890db34ab30457,1600.0,audio/493_621_B4.wav,k,493.0,621.0,573.0,robotic,,12wokqv1u0.csv
,,,,,html-keyboard-response,281,2.1.0,541197,67f9b647dcd4755a0f10984c,6969c6242409f4b0184101e3,696aaa1c7a890db34ab30457,,,,,,,,,12wokqv1u0.csv
,,,,,audio-keyboard-response,282,2.1.0,542564,67f9b647dcd4755a0f10984c,6969c6242409f4b0184101e3,696aaa1c7a890db34ab30457,1360.0,audio/752_523_B2.wav,k,752.0,523.0,493.0,robotic,,12wokqv1u0.csv
,,,,,html-keyboard-response,283,2.1.0,543071,67f9b647dcd4755a0f10984c,6969c6242409f4b0184101e3,696aaa1c7a890db34ab30457,,,,,,,,,12wokqv1u0.csv
,,,,,audio-keyboard-response,284,2.1.0,545155,67f9b647dcd4755a0f10984c,6969c6242409f4b0184101e3,696aaa1c7a890db34ab30457,2080.0,audio/493_714_B3.wav,d,493.0,714.0,752.0,emotive,,12wokqv1u0.csv
,,,,,html-keyboard-response,285,2.1.0,545667,67f9b647dcd4755a0f10984c,6969c6242409f4b0184101e3,696aaa1c7a890db34ab30457,,,,,,,,,12wokqv1u0.csv
,,,,,audio-keyboard-response,286,2.1.0,547770,67f9b647dcd4755a0f10984c,6969c6242409f4b0184101e3,696aaa1c7a890db34ab30457,2101.0,audio/573_520_B2.wav,k,573.0,520.0,493.0,robotic,,12wokqv1u0.csv
,,,,,html-keyboard-response,287,2.1.0,548288,67f9b647dcd4755a0f10984c,6969c6242409f4b0184101e3,696aaa1c7a890db34ab30457,,,,,,,,,12wokqv1u0.csv
,,,,,audio-keyboard-response,288,2.1.0,549763,67f9b647dcd4755a0f10984c,6969c6242409f4b0184101e3,696aaa1c7a890db34ab30457,1469.0,audio/672_618_B3.wav,d,672.0,618.0,573.0,emotive,,12wokqv1u0.csv
,,,,,html-keyboard-response,289,2.1.0,550279,67f9b647dcd4755a0f10984c,6969c6242409f4b0184101e3,696aaa1c7a890db34ab30457,,,,,,,,,12wokqv1u0.csv
,,,,,audio-keyboard-response,290,2.1.0,551879,67f9b647dcd4755a0f10984c,6969c6242409f4b0184101e3,696aaa1c7a890db34ab30457,1600.0,audio/573_515_B1.wav,k,573.0,515.0,672.0,robotic,,12wokqv1u0.csv
,,,,,html-keyboard-response,291,2.1.0,552388,67f9b647dcd4755a0f10984c,6969c6242409f4b0184101e3,696aaa1c7a890db34ab30457,,,,,,,,,12wokqv1u0.csv
,,,,,audio-keyboard-response,292,2.1.0,553640,67f9b647dcd4755a0f10984c,6969c6242409f4b0184101e3,696aaa1c7a890db34ab30457,1251.0,audio/672_516_B2.wav,d,672.0,516.0,573.0,emotive,,12wokqv1u0.csv
,,,,,html-keyboard-response,293,2.1.0,554145,67f9b647dcd4755a0f10984c,6969c6242409f4b0184101e3,696aaa1c7a890db34ab30457,,,,,,,,,12wokqv1u0.csv
,,,,,audio-keyboard-response,294,2.1.0,556502,67f9b647dcd4755a0f10984c,6969c6242409f4b0184101e3,696aaa1c7a890db34ab30457,2360.0,audio/573_707_B3.wav,d,573.0,707.0,672.0,emotive,,12wokqv1u0.csv
,,,,,html-keyboard-response,295,2.1.0,557011,67f9b647dcd4755a0f10984c,6969c6242409f4b0184101e3,696aaa1c7a890db34ab30457,,,,,,,,,12wokqv1u0.csv
,,,,,audio-keyboard-response,296,2.1.0,558860,67f9b647dcd4755a0f10984c,6969c6242409f4b0184101e3,696aaa1c7a890db34ab30457,1848.0,audio/672_531_B1.wav,d,672.0,531.0,573.0,emotive,,12wokqv1u0.csv
,,,,,html-keyboard-response,297,2.1.0,559376,67f9b647dcd4755a0f10984c,6969c6242409f4b0184101e3,696aaa1c7a890db34ab30457,,,,,,,,,12wokqv1u0.csv
,,,,,audio-keyboard-response,298,2.1.0,561743,67f9b647dcd4755a0f10984c,6969c6242409f4b0184101e3,696aaa1c7a890db34ab30457,2360.0,audio/752_715_B3.wav,k,752.0,715.0,672.0,robotic,,12wokqv1u0.csv
,,,,,html-keyboard-response,299,2.1.0,562260,67f9b647dcd4755a0f10984c,6969c6242409f4b0184101e3,696aaa1c7a890db34ab30457,,,,,,,,,12wokqv1u0.csv
,,,,,audio-keyboard-response,300,2.1.0,563454,67f9b647dcd4755a0f10984c,6969c6242409f4b0184101e3,696aaa1c7a890db34ab30457,1192.0,audio/573_718_B4.wav,d,573.0,718.0,752.0,emotive,,12wokqv1u0.csv
,,,,,html-keyboard-response,301,2.1.0,563967,67f9b647dcd4755a0f10984c,6969c6242409f4b0184101e3,696aaa1c7a890db34ab30457,,,,,,,,,12wokqv1u0.csv
,,,,,audio-keyboard-response,302,2.1.0,565949,67f9b647dcd4755a0f10984c,6969c6242409f4b0184101e3,696aaa1c7a890db34ab30457,1979.0,audio/493_709_B3.wav,k,493.0,709.0,573.0,robotic,,12wokqv1u0.csv
,,,,,html-keyboard-response,303,2.1.0,566452,67f9b647dcd4755a0f10984c,6969c6242409f4b0184101e3,696aaa1c7a890db34ab30457,,,,,,,,,12wokqv1u0.csv
,,,,,audio-keyboard-response,304,2.1.0,568530,67f9b647dcd4755a0f10984c,6969c6242409f4b0184101e3,696aaa1c7a890db34ab30457,2080.0,audio/573_705_B3.wav,d,573.0,705.0,493.0,emotive,,12wokqv1u0.csv
,,,,,html-keyboard-response,305,2.1.0,569046,67f9b647dcd4755a0f10984c,6969c6242409f4b0184101e3,696aaa1c7a890db34ab30457,,,,,,,,,12wokqv1u0.csv
,,,,,audio-keyboard-response,306,2.1.0,571617,67f9b647dcd4755a0f10984c,6969c6242409f4b0184101e3,696aaa1c7a890db34ab30457,2560.0,audio/493_532_B1.wav,k,493.0,532.0,573.0,robotic,,12wokqv1u0.csv
,,,,,html-keyboard-response,307,2.1.0,572134,67f9b647dcd4755a0f10984c,6969c6242409f4b0184101e3,696aaa1c7a890db34ab30457,,,,,,,,,12wokqv1u0.csv
,,,,,audio-keyboard-response,308,2.1.0,574525,67f9b647dcd4755a0f10984c,6969c6242409f4b0184101e3,696aaa1c7a890db34ab30457,2389.0,audio/752_509_B2.wav,k,752.0,509.0,493.0,robotic,,12wokqv1u0.csv
,,,,,html-keyboard-response,309,2.1.0,575039,67f9b647dcd4755a0f10984c,6969c6242409f4b0184101e3,696aaa1c7a890db34ab30457,,,,,,,,,12wokqv1u0.csv
,,,,,audio-keyboard-response,310,2.1.0,576728,67f9b647dcd4755a0f10984c,6969c6242409f4b0184101e3,696aaa1c7a890db34ab30457,1691.0,audio/573_617_B3.wav,k,573.0,617.0,752.0,robotic,,12wokqv1u0.csv
,,,,,html-keyboard-response,311,2.1.0,577238,67f9b647dcd4755a0f10984c,6969c6242409f4b0184101e3,696aaa1c7a890db34ab30457,,,,,,,,,12wokqv1u0.csv
,,,,,audio-keyboard-response,312,2.1.0,580260,67f9b647dcd4755a0f10984c,6969c6242409f4b0184101e3,696aaa1c7a890db34ab30457,3019.0,audio/493_624_B4.wav,d,493.0,624.0,573.0,emotive,,12wokqv1u0.csv
,,,,,html-keyboard-response,313,2.1.0,580776,67f9b647dcd4755a0f10984c,6969c6242409f4b0184101e3,696aaa1c7a890db34ab30457,,,,,,,,,12wokqv1u0.csv
,,,,,audio-keyboard-response,314,2.1.0,582204,67f9b647dcd4755a0f10984c,6969c6242409f4b0184101e3,696aaa1c7a890db34ab30457,1429.0,audio/672_623_B3.wav,d,672.0,623.0,493.0,emotive,,12wokqv1u0.csv
,,,,,html-keyboard-response,315,2.1.0,582720,67f9b647dcd4755a0f10984c,6969c6242409f4b0184101e3,696aaa1c7a890db34ab30457,,,,,,,,,12wokqv1u0.csv
,,,,,audio-keyboard-response,316,2.1.0,584195,67f9b647dcd4755a0f10984c,6969c6242409f4b0184101e3,696aaa1c7a890db34ab30457,1469.0,audio/493_723_B3.wav,k,493.0,723.0,672.0,robotic,,12wokqv1u0.csv
,,,,,html-keyboard-response,317,2.1.0,584708,67f9b647dcd4755a0f10984c,6969c6242409f4b0184101e3,696aaa1c7a890db34ab30457,,,,,,,,,12wokqv1u0.csv
,,,,,audio-keyboard-response,318,2.1.0,586702,67f9b647dcd4755a0f10984c,6969c6242409f4b0184101e3,696aaa1c7a890db34ab30457,1989.0,audio/493_519_redo2.wav,k,493.0,519.0,493.0,robotic,,12wokqv1u0.csv
,,,,,html-keyboard-response,319,2.1.0,587204,67f9b647dcd4755a0f10984c,6969c6242409f4b0184101e3,696aaa1c7a890db34ab30457,,,,,,,,,12wokqv1u0.csv
,,,,,audio-keyboard-response,320,2.1.0,589014,67f9b647dcd4755a0f10984c,6969c6242409f4b0184101e3,696aaa1c7a890db34ab30457,1811.0,audio/752_619_B4.wav,k,752.0,619.0,493.0,robotic,,12wokqv1u0.csv
,,,,,html-keyboard-response,321,2.1.0,589523,67f9b647dcd4755a0f10984c,6969c6242409f4b0184101e3,696aaa1c7a890db34ab30457,,,,,,,,,12wokqv1u0.csv
,,,,,audio-keyboard-response,322,2.1.0,590998,67f9b647dcd4755a0f10984c,6969c6242409f4b0184101e3,696aaa1c7a890db34ab30457,1480.0,audio/493_527_redo2.wav,k,493.0,527.0,752.0,robotic,,12wokqv1u0.csv
,,,,,html-keyboard-response,323,2.1.0,591514,67f9b647dcd4755a0f10984c,6969c6242409f4b0184101e3,696aaa1c7a890db34ab30457,,,,,,,,,12wokqv1u0.csv
,,,,,audio-keyboard-response,324,2.1.0,593205,67f9b647dcd4755a0f10984c,6969c6242409f4b0184101e3,696aaa1c7a890db34ab30457,1691.0,audio/752_506_B2.wav,k,752.0,506.0,493.0,robotic,,12wokqv1u0.csv
,,,,,html-keyboard-response,325,2.1.0,593719,67f9b647dcd4755a0f10984c,6969c6242409f4b0184101e3,696aaa1c7a890db34ab30457,,,,,,,,,12wokqv1u0.csv
,,,,,audio-keyboard-response,326,2.1.0,595182,67f9b647dcd4755a0f10984c,6969c6242409f4b0184101e3,696aaa1c7a890db34ab30457,1459.0,audio/672_721_B3.wav,d,672.0,721.0,752.0,emotive,,12wokqv1u0.csv
,,,,,html-keyboard-response,327,2.1.0,595699,67f9b647dcd4755a0f10984c,6969c6242409f4b0184101e3,696aaa1c7a890db34ab30457,,,,,,,,,12wokqv1u0.csv
,,,,,audio-keyboard-response,328,2.1.0,597665,67f9b647dcd4755a0f10984c,6969c6242409f4b0184101e3,696aaa1c7a890db34ab30457,1960.0,audio/493_713_B3.wav,k,493.0,713.0,672.0,robotic,,12wokqv1u0.csv
,,,,,html-keyboard-response,329,2.1.0,598170,67f9b647dcd4755a0f10984c,6969c6242409f4b0184101e3,696aaa1c7a890db34ab30457,,,,,,,,,12wokqv1u0.csv
,,,,,audio-keyboard-response,330,2.1.0,600096,67f9b647dcd4755a0f10984c,6969c6242409f4b0184101e3,696aaa1c7a890db34ab30457,1920.0,audio/672_539_B2.wav,d,672.0,539.0,493.0,emotive,,12wokqv1u0.csv
,,,,,html-keyboard-response,331,2.1.0,600598,67f9b647dcd4755a0f10984c,6969c6242409f4b0184101e3,696aaa1c7a890db34ab30457,,,,,,,,,12wokqv1u0.csv
,,,,,audio-keyboard-response,332,2.1.0,602699,67f9b647dcd4755a0f10984c,6969c6242409f4b0184101e3,696aaa1c7a890db34ab30457,2099.0,audio/752_725_B4.wav,k,752.0,725.0,672.0,robotic,,12wokqv1u0.csv
,,,,,html-keyboard-response,333,2.1.0,603218,67f9b647dcd4755a0f10984c,6969c6242409f4b0184101e3,696aaa1c7a890db34ab30457,,,,,,,,,12wokqv1u0.csv
,,,,,html-keyboard-response,334,2.1.0,606222,67f9b647dcd4755a0f10984c,6969c6242409f4b0184101e3,696aaa1c7a890db34ab30457,,"
  <div class=""header_container""><div class=""header"">BLOCK 4</div></div>
  ",,,,,,,12wokqv1u0.csv
,,,,,audio-keyboard-response,335,2.1.0,608350,67f9b647dcd4755a0f10984c,6969c6242409f4b0184101e3,696aaa1c7a890db34ab30457,2131.0,audio/672_719_B4.wav,d,672.0,719.0,752.0,nervous,,12wokqv1u0.csv
,,,,,html-keyboard-response,336,2.1.0,608866,67f9b647dcd4755a0f10984c,6969c6242409f4b0184101e3,696aaa1c7a890db34ab30457,,,,,,,,,12wokqv1u0.csv
,,,,,audio-keyboard-response,337,2.1.0,610269,67f9b647dcd4755a0f10984c,6969c6242409f4b0184101e3,696aaa1c7a890db34ab30457,1400.0,audio/493_720_B3.wav,k,493.0,720.0,672.0,calm,,12wokqv1u0.csv
,,,,,html-keyboard-response,338,2.1.0,610771,67f9b647dcd4755a0f10984c,6969c6242409f4b0184101e3,696aaa1c7a890db34ab30457,,,,,,,,,12wokqv1u0.csv
,,,,,audio-keyboard-response,339,2.1.0,612973,67f9b647dcd4755a0f10984c,6969c6242409f4b0184101e3,696aaa1c7a890db34ab30457,2200.0,audio/752_721_B4.wav,d,752.0,721.0,493.0,nervous,,12wokqv1u0.csv
,,,,,html-keyboard-response,340,2.1.0,613480,67f9b647dcd4755a0f10984c,6969c6242409f4b0184101e3,696aaa1c7a890db34ab30457,,,,,,,,,12wokqv1u0.csv
,,,,,audio-keyboard-response,341,2.1.0,615094,67f9b647dcd4755a0f10984c,6969c6242409f4b0184101e3,696aaa1c7a890db34ab30457,1611.0,audio/573_713_B3.wav,d,573.0,713.0,752.0,nervous,,12wokqv1u0.csv
,,,,,html-keyboard-response,342,2.1.0,615602,67f9b647dcd4755a0f10984c,6969c6242409f4b0184101e3,696aaa1c7a890db34ab30457,,,,,,,,,12wokqv1u0.csv
,,,,,audio-keyboard-response,343,2.1.0,617106,67f9b647dcd4755a0f10984c,6969c6242409f4b0184101e3,696aaa1c7a890db34ab30457,1499.0,audio/672_509_B2.wav,k,672.0,509.0,573.0,calm,,12wokqv1u0.csv
,,,,,html-keyboard-response,344,2.1.0,617618,67f9b647dcd4755a0f10984c,6969c6242409f4b0184101e3,696aaa1c7a890db34ab30457,,,,,,,,,12wokqv1u0.csv
,,,,,audio-keyboard-response,345,2.1.0,619132,67f9b647dcd4755a0f10984c,6969c6242409f4b0184101e3,696aaa1c7a890db34ab30457,1512.0,audio/573_724_B3.wav,d,573.0,724.0,672.0,nervous,,12wokqv1u0.csv
,,,,,html-keyboard-response,346,2.1.0,619636,67f9b647dcd4755a0f10984c,6969c6242409f4b0184101e3,696aaa1c7a890db34ab30457,,,,,,,,,12wokqv1u0.csv
,,,,,audio-keyboard-response,347,2.1.0,622161,67f9b647dcd4755a0f10984c,6969c6242409f4b0184101e3,696aaa1c7a890db34ab30457,2520.0,audio/493_620_B3.wav,k,493.0,620.0,573.0,calm,,12wokqv1u0.csv
,,,,,html-keyboard-response,348,2.1.0,622664,67f9b647dcd4755a0f10984c,6969c6242409f4b0184101e3,696aaa1c7a890db34ab30457,,,,,,,,,12wokqv1u0.csv
,,,,,audio-keyboard-response,349,2.1.0,624634,67f9b647dcd4755a0f10984c,6969c6242409f4b0184101e3,696aaa1c7a890db34ab30457,1971.0,audio/752_710_B4.wav,k,752.0,710.0,493.0,calm,,12wokqv1u0.csv
,,,,,html-keyboard-response,350,2.1.0,625140,67f9b647dcd4755a0f10984c,6969c6242409f4b0184101e3,696aaa1c7a890db34ab30457,,,,,,,,,12wokqv1u0.csv
,,,,,audio-keyboard-response,351,2.1.0,626426,67f9b647dcd4755a0f10984c,6969c6242409f4b0184101e3,696aaa1c7a890db34ab30457,1280.0,audio/573_604_B4.wav,d,573.0,604.0,752.0,nervous,,12wokqv1u0.csv
,,,,,html-keyboard-response,352,2.1.0,626936,67f9b647dcd4755a0f10984c,6969c6242409f4b0184101e3,696aaa1c7a890db34ab30457,,,,,,,,,12wokqv1u0.csv
,,,,,audio-keyboard-response,353,2.1.0,628966,67f9b647dcd4755a0f10984c,6969c6242409f4b0184101e3,696aaa1c7a890db34ab30457,2029.0,audio/672_513_B2.wav,d,672.0,513.0,573.0,nervous,,12wokqv1u0.csv
,,,,,html-keyboard-response,354,2.1.0,629482,67f9b647dcd4755a0f10984c,6969c6242409f4b0184101e3,696aaa1c7a890db34ab30457,,,,,,,,,12wokqv1u0.csv
,,,,,audio-keyboard-response,355,2.1.0,631365,67f9b647dcd4755a0f10984c,6969c6242409f4b0184101e3,696aaa1c7a890db34ab30457,1880.0,audio/752_705_B4.wav,k,752.0,705.0,672.0,calm,,12wokqv1u0.csv
,,,,,html-keyboard-response,356,2.1.0,631875,67f9b647dcd4755a0f10984c,6969c6242409f4b0184101e3,696aaa1c7a890db34ab30457,,,,,,,,,12wokqv1u0.csv
,,,,,audio-keyboard-response,357,2.1.0,633652,67f9b647dcd4755a0f10984c,6969c6242409f4b0184101e3,696aaa1c7a890db34ab30457,1781.0,audio/752_511_B2.wav,k,752.0,511.0,752.0,calm,,12wokqv1u0.csv
,,,,,html-keyboard-response,358,2.1.0,634169,67f9b647dcd4755a0f10984c,6969c6242409f4b0184101e3,696aaa1c7a890db34ab30457,,,,,,,,,12wokqv1u0.csv
,,,,,audio-keyboard-response,359,2.1.0,636384,67f9b647dcd4755a0f10984c,6969c6242409f4b0184101e3,696aaa1c7a890db34ab30457,2208.0,audio/672_526_B2.wav,k,672.0,526.0,752.0,calm,,12wokqv1u0.csv
,,,,,html-keyboard-response,360,2.1.0,636895,67f9b647dcd4755a0f10984c,6969c6242409f4b0184101e3,696aaa1c7a890db34ab30457,,,,,,,,,12wokqv1u0.csv
,,,,,audio-keyboard-response,361,2.1.0,638508,67f9b647dcd4755a0f10984c,6969c6242409f4b0184101e3,696aaa1c7a890db34ab30457,1619.0,audio/672_520_B2.wav,k,672.0,520.0,672.0,calm,,12wokqv1u0.csv
,,,,,html-keyboard-response,362,2.1.0,639019,67f9b647dcd4755a0f10984c,6969c6242409f4b0184101e3,696aaa1c7a890db34ab30457,,,,,,,,,12wokqv1u0.csv
,,,,,audio-keyboard-response,363,2.1.0,641207,67f9b647dcd4755a0f10984c,6969c6242409f4b0184101e3,696aaa1c7a890db34ab30457,2181.0,audio/752_507_B2.wav,k,752.0,507.0,672.0,calm,,12wokqv1u0.csv
,,,,,html-keyboard-response,364,2.1.0,641723,67f9b647dcd4755a0f10984c,6969c6242409f4b0184101e3,696aaa1c7a890db34ab30457,,,,,,,,,12wokqv1u0.csv
,,,,,audio-keyboard-response,365,2.1.0,643619,67f9b647dcd4755a0f10984c,6969c6242409f4b0184101e3,696aaa1c7a890db34ab30457,1899.0,audio/752_707_B3.wav,k,752.0,707.0,752.0,calm,,12wokqv1u0.csv
,,,,,html-keyboard-response,366,2.1.0,644127,67f9b647dcd4755a0f10984c,6969c6242409f4b0184101e3,696aaa1c7a890db34ab30457,,,,,,,,,12wokqv1u0.csv
,,,,,audio-keyboard-response,367,2.1.0,646567,67f9b647dcd4755a0f10984c,6969c6242409f4b0184101e3,696aaa1c7a890db34ab30457,2429.0,audio/752_726_B4.wav,d,752.0,726.0,752.0,nervous,,12wokqv1u0.csv
,,,,,html-keyboard-response,368,2.1.0,647074,67f9b647dcd4755a0f10984c,6969c6242409f4b0184101e3,696aaa1c7a890db34ab30457,,,,,,,,,12wokqv1u0.csv
,,,,,audio-keyboard-response,369,2.1.0,649424,67f9b647dcd4755a0f10984c,6969c6242409f4b0184101e3,696aaa1c7a890db34ab30457,2349.0,audio/752_537_B2.wav,k,752.0,537.0,752.0,calm,,12wokqv1u0.csv
,,,,,html-keyboard-response,370,2.1.0,649939,67f9b647dcd4755a0f10984c,6969c6242409f4b0184101e3,696aaa1c7a890db34ab30457,,,,,,,,,12wokqv1u0.csv
,,,,,audio-keyboard-response,371,2.1.0,652190,67f9b647dcd4755a0f10984c,6969c6242409f4b0184101e3,696aaa1c7a890db34ab30457,2251.0,audio/752_612_B3.wav,k,752.0,612.0,752.0,calm,,12wokqv1u0.csv
,,,,,html-keyboard-response,372,2.1.0,652698,67f9b647dcd4755a0f10984c,6969c6242409f4b0184101e3,696aaa1c7a890db34ab30457,,,,,,,,,12wokqv1u0.csv
,,,,,audio-keyboard-response,373,2.1.0,654160,67f9b647dcd4755a0f10984c,6969c6242409f4b0184101e3,696aaa1c7a890db34ab30457,1461.0,audio/672_508_B2.wav,k,672.0,508.0,752.0,calm,,12wokqv1u0.csv
,,,,,html-keyboard-response,374,2.1.0,654669,67f9b647dcd4755a0f10984c,6969c6242409f4b0184101e3,696aaa1c7a890db34ab30457,,,,,,,,,12wokqv1u0.csv
,,,,,audio-keyboard-response,375,2.1.0,657230,67f9b647dcd4755a0f10984c,6969c6242409f4b0184101e3,696aaa1c7a890db34ab30457,2560.0,audio/573_714_B3.wav,k,573.0,714.0,672.0,calm,,12wokqv1u0.csv
,,,,,html-keyboard-response,376,2.1.0,657736,67f9b647dcd4755a0f10984c,6969c6242409f4b0184101e3,696aaa1c7a890db34ab30457,,,,,,,,,12wokqv1u0.csv
,,,,,audio-keyboard-response,377,2.1.0,662388,67f9b647dcd4755a0f10984c,6969c6242409f4b0184101e3,696aaa1c7a890db34ab30457,4651.0,audio/752_527_B2.wav,k,752.0,527.0,573.0,calm,,12wokqv1u0.csv
,,,,,html-keyboard-response,378,2.1.0,662904,67f9b647dcd4755a0f10984c,6969c6242409f4b0184101e3,696aaa1c7a890db34ab30457,,,,,,,,,12wokqv1u0.csv
,,,,,audio-keyboard-response,379,2.1.0,666200,67f9b647dcd4755a0f10984c,6969c6242409f4b0184101e3,696aaa1c7a890db34ab30457,3301.0,audio/672_622_B3.wav,k,672.0,622.0,752.0,calm,,12wokqv1u0.csv
,,,,,html-keyboard-response,380,2.1.0,666714,67f9b647dcd4755a0f10984c,6969c6242409f4b0184101e3,696aaa1c7a890db34ab30457,,,,,,,,,12wokqv1u0.csv
,,,,,audio-keyboard-response,381,2.1.0,668539,67f9b647dcd4755a0f10984c,6969c6242409f4b0184101e3,696aaa1c7a890db34ab30457,1829.0,audio/493_607_B3.wav,d,493.0,607.0,672.0,nervous,,12wokqv1u0.csv
,,,,,html-keyboard-response,382,2.1.0,669053,67f9b647dcd4755a0f10984c,6969c6242409f4b0184101e3,696aaa1c7a890db34ab30457,,,,,,,,,12wokqv1u0.csv
,,,,,audio-keyboard-response,383,2.1.0,670587,67f9b647dcd4755a0f10984c,6969c6242409f4b0184101e3,696aaa1c7a890db34ab30457,1528.0,audio/573_615_B3.wav,d,573.0,615.0,493.0,nervous,,12wokqv1u0.csv
,,,,,html-keyboard-response,384,2.1.0,671103,67f9b647dcd4755a0f10984c,6969c6242409f4b0184101e3,696aaa1c7a890db34ab30457,,,,,,,,,12wokqv1u0.csv
,,,,,audio-keyboard-response,385,2.1.0,673087,67f9b647dcd4755a0f10984c,6969c6242409f4b0184101e3,696aaa1c7a890db34ab30457,1981.0,audio/493_616_B3.wav,k,493.0,616.0,573.0,calm,,12wokqv1u0.csv
,,,,,html-keyboard-response,386,2.1.0,673604,67f9b647dcd4755a0f10984c,6969c6242409f4b0184101e3,696aaa1c7a890db34ab30457,,,,,,,,,12wokqv1u0.csv
,,,,,audio-keyboard-response,387,2.1.0,674848,67f9b647dcd4755a0f10984c,6969c6242409f4b0184101e3,696aaa1c7a890db34ab30457,1251.0,audio/573_532_redo.wav,d,573.0,532.0,493.0,nervous,,12wokqv1u0.csv
,,,,,html-keyboard-response,388,2.1.0,675359,67f9b647dcd4755a0f10984c,6969c6242409f4b0184101e3,696aaa1c7a890db34ab30457,,,,,,,,,12wokqv1u0.csv
,,,,,audio-keyboard-response,389,2.1.0,676833,67f9b647dcd4755a0f10984c,6969c6242409f4b0184101e3,696aaa1c7a890db34ab30457,1469.0,audio/672_519_B2.wav,d,672.0,519.0,573.0,nervous,,12wokqv1u0.csv
,,,,,html-keyboard-response,390,2.1.0,677338,67f9b647dcd4755a0f10984c,6969c6242409f4b0184101e3,696aaa1c7a890db34ab30457,,,,,,,,,12wokqv1u0.csv
,,,,,audio-keyboard-response,391,2.1.0,679144,67f9b647dcd4755a0f10984c,6969c6242409f4b0184101e3,696aaa1c7a890db34ab30457,1800.0,audio/493_717_B3.wav,k,493.0,717.0,672.0,calm,,12wokqv1u0.csv
,,,,,html-keyboard-response,392,2.1.0,679649,67f9b647dcd4755a0f10984c,6969c6242409f4b0184101e3,696aaa1c7a890db34ab30457,,,,,,,,,12wokqv1u0.csv
,,,,,audio-keyboard-response,393,2.1.0,681243,67f9b647dcd4755a0f10984c,6969c6242409f4b0184101e3,696aaa1c7a890db34ab30457,1589.0,audio/573_722_B3.wav,d,573.0,722.0,493.0,nervous,,12wokqv1u0.csv
,,,,,html-keyboard-response,394,2.1.0,681751,67f9b647dcd4755a0f10984c,6969c6242409f4b0184101e3,696aaa1c7a890db34ab30457,,,,,,,,,12wokqv1u0.csv
,,,,,audio-keyboard-response,395,2.1.0,683335,67f9b647dcd4755a0f10984c,6969c6242409f4b0184101e3,696aaa1c7a890db34ab30457,1581.0,audio/573_605_B3.wav,d,573.0,605.0,573.0,nervous,,12wokqv1u0.csv
,,,,,html-keyboard-response,396,2.1.0,683848,67f9b647dcd4755a0f10984c,6969c6242409f4b0184101e3,696aaa1c7a890db34ab30457,,,,,,,,,12wokqv1u0.csv
,,,,,audio-keyboard-response,397,2.1.0,686873,67f9b647dcd4755a0f10984c,6969c6242409f4b0184101e3,696aaa1c7a890db34ab30457,3019.0,audio/672_718_B4.wav,d,672.0,718.0,573.0,nervous,,12wokqv1u0.csv
,,,,,html-keyboard-response,398,2.1.0,687388,67f9b647dcd4755a0f10984c,6969c6242409f4b0184101e3,696aaa1c7a890db34ab30457,,,,,,,,,12wokqv1u0.csv
,,,,,audio-keyboard-response,399,2.1.0,688935,67f9b647dcd4755a0f10984c,6969c6242409f4b0184101e3,696aaa1c7a890db34ab30457,1541.0,audio/573_522_B1.wav,k,573.0,522.0,672.0,calm,,12wokqv1u0.csv
,,,,,html-keyboard-response,400,2.1.0,689437,67f9b647dcd4755a0f10984c,6969c6242409f4b0184101e3,696aaa1c7a890db34ab30457,,,,,,,,,12wokqv1u0.csv
,,,,,audio-keyboard-response,401,2.1.0,691971,67f9b647dcd4755a0f10984c,6969c6242409f4b0184101e3,696aaa1c7a890db34ab30457,2531.0,audio/752_538_B1.wav,k,752.0,538.0,573.0,calm,,12wokqv1u0.csv
,,,,,html-keyboard-response,402,2.1.0,692473,67f9b647dcd4755a0f10984c,6969c6242409f4b0184101e3,696aaa1c7a890db34ab30457,,,,,,,,,12wokqv1u0.csv
,,,,,audio-keyboard-response,403,2.1.0,693769,67f9b647dcd4755a0f10984c,6969c6242409f4b0184101e3,696aaa1c7a890db34ab30457,1301.0,audio/493_609_B4.wav,k,493.0,609.0,752.0,calm,,12wokqv1u0.csv
,,,,,html-keyboard-response,404,2.1.0,694274,67f9b647dcd4755a0f10984c,6969c6242409f4b0184101e3,696aaa1c7a890db34ab30457,,,,,,,,,12wokqv1u0.csv
,,,,,audio-keyboard-response,405,2.1.0,696799,67f9b647dcd4755a0f10984c,6969c6242409f4b0184101e3,696aaa1c7a890db34ab30457,2531.0,audio/493_708_B3.wav,k,493.0,708.0,493.0,calm,,12wokqv1u0.csv
,,,,,html-keyboard-response,406,2.1.0,697300,67f9b647dcd4755a0f10984c,6969c6242409f4b0184101e3,696aaa1c7a890db34ab30457,,,,,,,,,12wokqv1u0.csv
,,,,,audio-keyboard-response,407,2.1.0,699370,67f9b647dcd4755a0f10984c,6969c6242409f4b0184101e3,696aaa1c7a890db34ab30457,2072.0,audio/573_535_B1.wav,d,573.0,535.0,493.0,nervous,,12wokqv1u0.csv
,,,,,html-keyboard-response,408,2.1.0,699874,67f9b647dcd4755a0f10984c,6969c6242409f4b0184101e3,696aaa1c7a890db34ab30457,,,,,,,,,12wokqv1u0.csv
,,,,,audio-keyboard-response,409,2.1.0,701525,67f9b647dcd4755a0f10984c,6969c6242409f4b0184101e3,696aaa1c7a890db34ab30457,1651.0,audio/493_725_B3.wav,k,493.0,725.0,573.0,calm,,12wokqv1u0.csv
,,,,,html-keyboard-response,410,2.1.0,702033,67f9b647dcd4755a0f10984c,6969c6242409f4b0184101e3,696aaa1c7a890db34ab30457,,,,,,,,,12wokqv1u0.csv
,,,,,audio-keyboard-response,411,2.1.0,703820,67f9b647dcd4755a0f10984c,6969c6242409f4b0184101e3,696aaa1c7a890db34ab30457,1789.0,audio/493_523_B1.wav,k,493.0,523.0,493.0,calm,,12wokqv1u0.csv
,,,,,html-keyboard-response,412,2.1.0,704325,67f9b647dcd4755a0f10984c,6969c6242409f4b0184101e3,696aaa1c7a890db34ab30457,,,,,,,,,12wokqv1u0.csv
,,,,,audio-keyboard-response,413,2.1.0,706260,67f9b647dcd4755a0f10984c,6969c6242409f4b0184101e3,696aaa1c7a890db34ab30457,1939.0,audio/672_506_B2.wav,d,672.0,506.0,493.0,nervous,,12wokqv1u0.csv
,,,,,html-keyboard-response,414,2.1.0,706772,67f9b647dcd4755a0f10984c,6969c6242409f4b0184101e3,696aaa1c7a890db34ab30457,,,,,,,,,12wokqv1u0.csv
,,,,,audio-keyboard-response,415,2.1.0,708430,67f9b647dcd4755a0f10984c,6969c6242409f4b0184101e3,696aaa1c7a890db34ab30457,1659.0,audio/672_510_B1.wav,d,672.0,510.0,672.0,nervous,,12wokqv1u0.csv
,,,,,html-keyboard-response,416,2.1.0,708934,67f9b647dcd4755a0f10984c,6969c6242409f4b0184101e3,696aaa1c7a890db34ab30457,,,,,,,,,12wokqv1u0.csv
,,,,,audio-keyboard-response,417,2.1.0,711191,67f9b647dcd4755a0f10984c,6969c6242409f4b0184101e3,696aaa1c7a890db34ab30457,2259.0,audio/752_624_B4.wav,k,752.0,624.0,672.0,calm,,12wokqv1u0.csv
,,,,,html-keyboard-response,418,2.1.0,711708,67f9b647dcd4755a0f10984c,6969c6242409f4b0184101e3,696aaa1c7a890db34ab30457,,,,,,,,,12wokqv1u0.csv
,,,,,audio-keyboard-response,419,2.1.0,715153,67f9b647dcd4755a0f10984c,6969c6242409f4b0184101e3,696aaa1c7a890db34ab30457,3440.0,audio/672_505_B2.wav,k,672.0,505.0,752.0,calm,,12wokqv1u0.csv
,,,,,html-keyboard-response,420,2.1.0,715664,67f9b647dcd4755a0f10984c,6969c6242409f4b0184101e3,696aaa1c7a890db34ab30457,,,,,,,,,12wokqv1u0.csv
,,,,,audio-keyboard-response,421,2.1.0,717440,67f9b647dcd4755a0f10984c,6969c6242409f4b0184101e3,696aaa1c7a890db34ab30457,1781.0,audio/573_715_B3.wav,d,573.0,715.0,672.0,nervous,,12wokqv1u0.csv
,,,,,html-keyboard-response,422,2.1.0,717954,67f9b647dcd4755a0f10984c,6969c6242409f4b0184101e3,696aaa1c7a890db34ab30457,,,,,,,,,12wokqv1u0.csv
,,,,,audio-keyboard-response,423,2.1.0,719269,67f9b647dcd4755a0f10984c,6969c6242409f4b0184101e3,696aaa1c7a890db34ab30457,1320.0,audio/493_613_B4.wav,k,493.0,613.0,573.0,calm,,12wokqv1u0.csv
,,,,,html-keyboard-response,424,2.1.0,719779,67f9b647dcd4755a0f10984c,6969c6242409f4b0184101e3,696aaa1c7a890db34ab30457,,,,,,,,,12wokqv1u0.csv
,,,,,audio-keyboard-response,425,2.1.0,722206,67f9b647dcd4755a0f10984c,6969c6242409f4b0184101e3,696aaa1c7a890db34ab30457,2421.0,audio/573_610_B3.wav,d,573.0,610.0,493.0,nervous,,12wokqv1u0.csv
,,,,,html-keyboard-response,426,2.1.0,722711,67f9b647dcd4755a0f10984c,6969c6242409f4b0184101e3,696aaa1c7a890db34ab30457,,,,,,,,,12wokqv1u0.csv
,,,,,audio-keyboard-response,427,2.1.0,724018,67f9b647dcd4755a0f10984c,6969c6242409f4b0184101e3,696aaa1c7a890db34ab30457,1309.0,audio/493_521_B2.wav,k,493.0,521.0,573.0,calm,,12wokqv1u0.csv
,,,,,html-keyboard-response,428,2.1.0,724521,67f9b647dcd4755a0f10984c,6969c6242409f4b0184101e3,696aaa1c7a890db34ab30457,,,,,,,,,12wokqv1u0.csv
,,,,,audio-keyboard-response,429,2.1.0,726179,67f9b647dcd4755a0f10984c,6969c6242409f4b0184101e3,696aaa1c7a890db34ab30457,1659.0,audio/493_518_B1.wav,k,493.0,518.0,493.0,calm,,12wokqv1u0.csv
,,,,,html-keyboard-response,430,2.1.0,726685,67f9b647dcd4755a0f10984c,6969c6242409f4b0184101e3,696aaa1c7a890db34ab30457,,,,,,,,,12wokqv1u0.csv
,,,,,html-button-response,431,2.1.0,729683,67f9b647dcd4755a0f10984c,6969c6242409f4b0184101e3,696aaa1c7a890db34ab30457,2995.0,This is an attention check. Please select which labels you were using in the previous block.,1,,,,,True,12wokqv1u0.csv
,,,,,html-keyboard-response,432,2.1.0,732685,67f9b647dcd4755a0f10984c,6969c6242409f4b0184101e3,696aaa1c7a890db34ab30457,,"
  <div class=""header_container""><div class=""header"">BLOCK 5</div></div>
  ",,,,,,,12wokqv1u0.csv
,,,,,audio-keyboard-response,433,2.1.0,734903,67f9b647dcd4755a0f10984c,6969c6242409f4b0184101e3,696aaa1c7a890db34ab30457,2219.0,audio/752_607_B4.wav,k,752.0,607.0,493.0,dull,,12wokqv1u0.csv
,,,,,html-keyboard-response,434,2.1.0,735408,67f9b647dcd4755a0f10984c,6969c6242409f4b0184101e3,696aaa1c7a890db34ab30457,,,,,,,,,12wokqv1u0.csv
,,,,,audio-keyboard-response,435,2.1.0,736930,67f9b647dcd4755a0f10984c,6969c6242409f4b0184101e3,696aaa1c7a890db34ab30457,1520.0,audio/672_507_B2.wav,d,672.0,507.0,752.0,sharp,,12wokqv1u0.csv
,,,,,html-keyboard-response,436,2.1.0,737442,67f9b647dcd4755a0f10984c,6969c6242409f4b0184101e3,696aaa1c7a890db34ab30457,,,,,,,,,12wokqv1u0.csv
,,,,,audio-keyboard-response,437,2.1.0,739048,67f9b647dcd4755a0f10984c,6969c6242409f4b0184101e3,696aaa1c7a890db34ab30457,1611.0,audio/672_715_B4.wav,d,672.0,715.0,672.0,sharp,,12wokqv1u0.csv
,,,,,html-keyboard-response,438,2.1.0,739551,67f9b647dcd4755a0f10984c,6969c6242409f4b0184101e3,696aaa1c7a890db34ab30457,,,,,,,,,12wokqv1u0.csv
,,,,,audio-keyboard-response,439,2.1.0,740938,67f9b647dcd4755a0f10984c,6969c6242409f4b0184101e3,696aaa1c7a890db34ab30457,1389.0,audio/493_719_B4.wav,k,493.0,719.0,672.0,dull,,12wokqv1u0.csv
,,,,,html-keyboard-response,440,2.1.0,741447,67f9b647dcd4755a0f10984c,6969c6242409f4b0184101e3,696aaa1c7a890db34ab30457,,,,,,,,,12wokqv1u0.csv
,,,,,audio-keyboard-response,441,2.1.0,743087,67f9b647dcd4755a0f10984c,6969c6242409f4b0184101e3,696aaa1c7a890db34ab30457,1629.0,audio/573_720_B3.wav,d,573.0,720.0,493.0,sharp,,12wokqv1u0.csv
,,,,,html-keyboard-response,442,2.1.0,743595,67f9b647dcd4755a0f10984c,6969c6242409f4b0184101e3,696aaa1c7a890db34ab30457,,,,,,,,,12wokqv1u0.csv
,,,,,audio-keyboard-response,443,2.1.0,745038,67f9b647dcd4755a0f10984c,6969c6242409f4b0184101e3,696aaa1c7a890db34ab30457,1451.0,audio/493_510_B1.wav,k,493.0,510.0,573.0,dull,,12wokqv1u0.csv
,,,,,html-keyboard-response,444,2.1.0,745541,67f9b647dcd4755a0f10984c,6969c6242409f4b0184101e3,696aaa1c7a890db34ab30457,,,,,,,,,12wokqv1u0.csv
,,,,,audio-keyboard-response,445,2.1.0,747307,67f9b647dcd4755a0f10984c,6969c6242409f4b0184101e3,696aaa1c7a890db34ab30457,1760.0,audio/493_505_B1.wav,k,493.0,505.0,493.0,dull,,12wokqv1u0.csv
,,,,,html-keyboard-response,446,2.1.0,747813,67f9b647dcd4755a0f10984c,6969c6242409f4b0184101e3,696aaa1c7a890db34ab30457,,,,,,,,,12wokqv1u0.csv
,,,,,audio-keyboard-response,447,2.1.0,749218,67f9b647dcd4755a0f10984c,6969c6242409f4b0184101e3,696aaa1c7a890db34ab30457,1408.0,audio/752_518_B2.wav,d,752.0,518.0,493.0,sharp,,12wokqv1u0.csv
,,,,,html-keyboard-response,448,2.1.0,749736,67f9b647dcd4755a0f10984c,6969c6242409f4b0184101e3,696aaa1c7a890db34ab30457,,,,,,,,,12wokqv1u0.csv
,,,,,audio-keyboard-response,449,2.1.0,751840,67f9b647dcd4755a0f10984c,6969c6242409f4b0184101e3,696aaa1c7a890db34ab30457,2101.0,audio/672_617_B4.wav,d,672.0,617.0,752.0,sharp,,12wokqv1u0.csv
,,,,,html-keyboard-response,450,2.1.0,752351,67f9b647dcd4755a0f10984c,6969c6242409f4b0184101e3,696aaa1c7a890db34ab30457,,,,,,,,,12wokqv1u0.csv
,,,,,audio-keyboard-response,451,2.1.0,755134,67f9b647dcd4755a0f10984c,6969c6242409f4b0184101e3,696aaa1c7a890db34ab30457,2781.0,audio/752_535_B2.wav,k,752.0,535.0,672.0,dull,,12wokqv1u0.csv
,,,,,html-keyboard-response,452,2.1.0,755639,67f9b647dcd4755a0f10984c,6969c6242409f4b0184101e3,696aaa1c7a890db34ab30457,,,,,,,,,12wokqv1u0.csv
,,,,,audio-keyboard-response,453,2.1.0,757743,67f9b647dcd4755a0f10984c,6969c6242409f4b0184101e3,696aaa1c7a890db34ab30457,2099.0,audio/752_611_B3.wav,k,752.0,611.0,752.0,dull,,12wokqv1u0.csv
,,,,,html-keyboard-response,454,2.1.0,758253,67f9b647dcd4755a0f10984c,6969c6242409f4b0184101e3,696aaa1c7a890db34ab30457,,,,,,,,,12wokqv1u0.csv
,,,,,audio-keyboard-response,455,2.1.0,759836,67f9b647dcd4755a0f10984c,6969c6242409f4b0184101e3,696aaa1c7a890db34ab30457,1579.0,audio/672_516_B2.wav,k,672.0,516.0,752.0,dull,,12wokqv1u0.csv
,,,,,html-keyboard-response,456,2.1.0,760350,67f9b647dcd4755a0f10984c,6969c6242409f4b0184101e3,696aaa1c7a890db34ab30457,,,,,,,,,12wokqv1u0.csv
,,,,,audio-keyboard-response,457,2.1.0,761784,67f9b647dcd4755a0f10984c,6969c6242409f4b0184101e3,696aaa1c7a890db34ab30457,1429.0,audio/573_625_B3.wav,d,573.0,625.0,672.0,sharp,,12wokqv1u0.csv
,,,,,html-keyboard-response,458,2.1.0,762287,67f9b647dcd4755a0f10984c,6969c6242409f4b0184101e3,696aaa1c7a890db34ab30457,,,,,,,,,12wokqv1u0.csv
,,,,,audio-keyboard-response,459,2.1.0,764041,67f9b647dcd4755a0f10984c,6969c6242409f4b0184101e3,696aaa1c7a890db34ab30457,1749.0,audio/672_723_B3.wav,d,672.0,723.0,573.0,sharp,,12wokqv1u0.csv
,,,,,html-keyboard-response,460,2.1.0,764557,67f9b647dcd4755a0f10984c,6969c6242409f4b0184101e3,696aaa1c7a890db34ab30457,,,,,,,,,12wokqv1u0.csv
,,,,,audio-keyboard-response,461,2.1.0,766665,67f9b647dcd4755a0f10984c,6969c6242409f4b0184101e3,696aaa1c7a890db34ab30457,2099.0,audio/573_612_B4.wav,d,573.0,612.0,672.0,sharp,,12wokqv1u0.csv
,,,,,html-keyboard-response,462,2.1.0,767179,67f9b647dcd4755a0f10984c,6969c6242409f4b0184101e3,696aaa1c7a890db34ab30457,,,,,,,,,12wokqv1u0.csv
,,,,,audio-keyboard-response,463,2.1.0,769123,67f9b647dcd4755a0f10984c,6969c6242409f4b0184101e3,696aaa1c7a890db34ab30457,1941.0,audio/493_534_B1.wav,k,493.0,534.0,573.0,dull,,12wokqv1u0.csv
,,,,,html-keyboard-response,464,2.1.0,769629,67f9b647dcd4755a0f10984c,6969c6242409f4b0184101e3,696aaa1c7a890db34ab30457,,,,,,,,,12wokqv1u0.csv
,,,,,audio-keyboard-response,465,2.1.0,771131,67f9b647dcd4755a0f10984c,6969c6242409f4b0184101e3,696aaa1c7a890db34ab30457,1501.0,audio/672_705_B3.wav,k,672.0,705.0,493.0,dull,,12wokqv1u0.csv
,,,,,html-keyboard-response,466,2.1.0,771638,67f9b647dcd4755a0f10984c,6969c6242409f4b0184101e3,696aaa1c7a890db34ab30457,,,,,,,,,12wokqv1u0.csv
,,,,,audio-keyboard-response,467,2.1.0,773278,67f9b647dcd4755a0f10984c,6969c6242409f4b0184101e3,696aaa1c7a890db34ab30457,1640.0,audio/752_537_B2.wav,k,752.0,537.0,672.0,dull,,12wokqv1u0.csv
,,,,,html-keyboard-response,468,2.1.0,773788,67f9b647dcd4755a0f10984c,6969c6242409f4b0184101e3,696aaa1c7a890db34ab30457,,,,,,,,,12wokqv1u0.csv
,,,,,audio-keyboard-response,469,2.1.0,775099,67f9b647dcd4755a0f10984c,6969c6242409f4b0184101e3,696aaa1c7a890db34ab30457,1309.0,audio/573_609_B4.wav,d,573.0,609.0,752.0,sharp,,12wokqv1u0.csv
,,,,,html-keyboard-response,470,2.1.0,775604,67f9b647dcd4755a0f10984c,6969c6242409f4b0184101e3,696aaa1c7a890db34ab30457,,,,,,,,,12wokqv1u0.csv
,,,,,audio-keyboard-response,471,2.1.0,777094,67f9b647dcd4755a0f10984c,6969c6242409f4b0184101e3,696aaa1c7a890db34ab30457,1491.0,audio/573_624_redo2.wav,d,573.0,624.0,573.0,sharp,,12wokqv1u0.csv
,,,,,html-keyboard-response,472,2.1.0,777602,67f9b647dcd4755a0f10984c,6969c6242409f4b0184101e3,696aaa1c7a890db34ab30457,,,,,,,,,12wokqv1u0.csv
,,,,,audio-keyboard-response,473,2.1.0,780070,67f9b647dcd4755a0f10984c,6969c6242409f4b0184101e3,696aaa1c7a890db34ab30457,2469.0,audio/493_619_B3.wav,k,493.0,619.0,573.0,dull,,12wokqv1u0.csv
,,,,,html-keyboard-response,474,2.1.0,780587,67f9b647dcd4755a0f10984c,6969c6242409f4b0184101e3,696aaa1c7a890db34ab30457,,,,,,,,,12wokqv1u0.csv
,,,,,audio-keyboard-response,475,2.1.0,783268,67f9b647dcd4755a0f10984c,6969c6242409f4b0184101e3,696aaa1c7a890db34ab30457,2680.0,audio/493_506_B1.wav,k,493.0,506.0,493.0,dull,,12wokqv1u0.csv
,,,,,html-keyboard-response,476,2.1.0,783771,67f9b647dcd4755a0f10984c,6969c6242409f4b0184101e3,696aaa1c7a890db34ab30457,,,,,,,,,12wokqv1u0.csv
,,,,,audio-keyboard-response,477,2.1.0,785224,67f9b647dcd4755a0f10984c,6969c6242409f4b0184101e3,696aaa1c7a890db34ab30457,1448.0,audio/752_522_B2.wav,k,752.0,522.0,493.0,dull,,12wokqv1u0.csv
,,,,,html-keyboard-response,478,2.1.0,785733,67f9b647dcd4755a0f10984c,6969c6242409f4b0184101e3,696aaa1c7a890db34ab30457,,,,,,,,,12wokqv1u0.csv
,,,,,audio-keyboard-response,479,2.1.0,786972,67f9b647dcd4755a0f10984c,6969c6242409f4b0184101e3,696aaa1c7a890db34ab30457,1240.0,audio/752_616_B4.wav,k,752.0,616.0,752.0,dull,,12wokqv1u0.csv
,,,,,html-keyboard-response,480,2.1.0,787477,67f9b647dcd4755a0f10984c,6969c6242409f4b0184101e3,696aaa1c7a890db34ab30457,,,,,,,,,12wokqv1u0.csv
,,,,,audio-keyboard-response,481,2.1.0,789125,67f9b647dcd4755a0f10984c,6969c6242409f4b0184101e3,696aaa1c7a890db34ab30457,1640.0,audio/672_613_B4.wav,k,672.0,613.0,752.0,dull,,12wokqv1u0.csv
,,,,,html-keyboard-response,482,2.1.0,789637,67f9b647dcd4755a0f10984c,6969c6242409f4b0184101e3,696aaa1c7a890db34ab30457,,,,,,,,,12wokqv1u0.csv
,,,,,audio-keyboard-response,483,2.1.0,790723,67f9b647dcd4755a0f10984c,6969c6242409f4b0184101e3,696aaa1c7a890db34ab30457,1080.0,audio/573_523_B1.wav,d,573.0,523.0,672.0,sharp,,12wokqv1u0.csv
,,,,,html-keyboard-response,484,2.1.0,791238,67f9b647dcd4755a0f10984c,6969c6242409f4b0184101e3,696aaa1c7a890db34ab30457,,,,,,,,,12wokqv1u0.csv
,,,,,audio-keyboard-response,485,2.1.0,793379,67f9b647dcd4755a0f10984c,6969c6242409f4b0184101e3,696aaa1c7a890db34ab30457,2139.0,audio/493_524_B2.wav,d,493.0,524.0,573.0,sharp,,12wokqv1u0.csv
,,,,,html-keyboard-response,486,2.1.0,793887,67f9b647dcd4755a0f10984c,6969c6242409f4b0184101e3,696aaa1c7a890db34ab30457,,,,,,,,,12wokqv1u0.csv
,,,,,audio-keyboard-response,487,2.1.0,795216,67f9b647dcd4755a0f10984c,6969c6242409f4b0184101e3,696aaa1c7a890db34ab30457,1320.0,audio/573_520_B2.wav,d,573.0,520.0,493.0,sharp,,12wokqv1u0.csv
,,,,,html-keyboard-response,488,2.1.0,795721,67f9b647dcd4755a0f10984c,6969c6242409f4b0184101e3,696aaa1c7a890db34ab30457,,,,,,,,,12wokqv1u0.csv
,,,,,audio-keyboard-response,489,2.1.0,796826,67f9b647dcd4755a0f10984c,6969c6242409f4b0184101e3,696aaa1c7a890db34ab30457,1099.0,audio/573_531_B2.wav,d,573.0,531.0,573.0,sharp,,12wokqv1u0.csv
,,,,,html-keyboard-response,490,2.1.0,797338,67f9b647dcd4755a0f10984c,6969c6242409f4b0184101e3,696aaa1c7a890db34ab30457,,,,,,,,,12wokqv1u0.csv
,,,,,audio-keyboard-response,491,2.1.0,799039,67f9b647dcd4755a0f10984c,6969c6242409f4b0184101e3,696aaa1c7a890db34ab30457,1701.0,audio/672_527_B1.wav,k,672.0,527.0,573.0,dull,,12wokqv1u0.csv
,,,,,html-keyboard-response,492,2.1.0,799542,67f9b647dcd4755a0f10984c,6969c6242409f4b0184101e3,696aaa1c7a890db34ab30457,,,,,,,,,12wokqv1u0.csv
,,,,,audio-keyboard-response,493,2.1.0,801234,67f9b647dcd4755a0f10984c,6969c6242409f4b0184101e3,696aaa1c7a890db34ab30457,1691.0,audio/493_605_B3.wav,k,493.0,605.0,672.0,dull,,12wokqv1u0.csv
,,,,,html-keyboard-response,494,2.1.0,801750,67f9b647dcd4755a0f10984c,6969c6242409f4b0184101e3,696aaa1c7a890db34ab30457,,,,,,,,,12wokqv1u0.csv
,,,,,audio-keyboard-response,495,2.1.0,803511,67f9b647dcd4755a0f10984c,6969c6242409f4b0184101e3,696aaa1c7a890db34ab30457,1760.0,audio/752_714_B4.wav,k,752.0,714.0,493.0,dull,,12wokqv1u0.csv
,,,,,html-keyboard-response,496,2.1.0,804018,67f9b647dcd4755a0f10984c,6969c6242409f4b0184101e3,696aaa1c7a890db34ab30457,,,,,,,,,12wokqv1u0.csv
,,,,,audio-keyboard-response,497,2.1.0,805323,67f9b647dcd4755a0f10984c,6969c6242409f4b0184101e3,696aaa1c7a890db34ab30457,1301.0,audio/573_621_B4.wav,d,573.0,621.0,752.0,sharp,,12wokqv1u0.csv
,,,,,html-keyboard-response,498,2.1.0,805827,67f9b647dcd4755a0f10984c,6969c6242409f4b0184101e3,696aaa1c7a890db34ab30457,,,,,,,,,12wokqv1u0.csv
,,,,,audio-keyboard-response,499,2.1.0,807849,67f9b647dcd4755a0f10984c,6969c6242409f4b0184101e3,696aaa1c7a890db34ab30457,2021.0,audio/672_513_B2.wav,d,672.0,513.0,573.0,sharp,,12wokqv1u0.csv
,,,,,html-keyboard-response,500,2.1.0,808353,67f9b647dcd4755a0f10984c,6969c6242409f4b0184101e3,696aaa1c7a890db34ab30457,,,,,,,,,12wokqv1u0.csv
,,,,,audio-keyboard-response,501,2.1.0,809580,67f9b647dcd4755a0f10984c,6969c6242409f4b0184101e3,696aaa1c7a890db34ab30457,1229.0,audio/573_717_B4.wav,d,573.0,717.0,672.0,sharp,,12wokqv1u0.csv
,,,,,html-keyboard-response,502,2.1.0,810092,67f9b647dcd4755a0f10984c,6969c6242409f4b0184101e3,696aaa1c7a890db34ab30457,,,,,,,,,12wokqv1u0.csv
,,,,,audio-keyboard-response,503,2.1.0,811711,67f9b647dcd4755a0f10984c,6969c6242409f4b0184101e3,696aaa1c7a890db34ab30457,1619.0,audio/752_615_B3.wav,k,752.0,615.0,573.0,dull,,12wokqv1u0.csv
,,,,,html-keyboard-response,504,2.1.0,812223,67f9b647dcd4755a0f10984c,6969c6242409f4b0184101e3,696aaa1c7a890db34ab30457,,,,,,,,,12wokqv1u0.csv
,,,,,audio-keyboard-response,505,2.1.0,814040,67f9b647dcd4755a0f10984c,6969c6242409f4b0184101e3,696aaa1c7a890db34ab30457,1821.0,audio/493_710_B3.wav,k,493.0,710.0,752.0,dull,,12wokqv1u0.csv
,,,,,html-keyboard-response,506,2.1.0,814543,67f9b647dcd4755a0f10984c,6969c6242409f4b0184101e3,696aaa1c7a890db34ab30457,,,,,,,,,12wokqv1u0.csv
,,,,,audio-keyboard-response,507,2.1.0,816172,67f9b647dcd4755a0f10984c,6969c6242409f4b0184101e3,696aaa1c7a890db34ab30457,1632.0,audio/672_515_B2.wav,k,672.0,515.0,493.0,dull,,12wokqv1u0.csv
,,,,,html-keyboard-response,508,2.1.0,816683,67f9b647dcd4755a0f10984c,6969c6242409f4b0184101e3,696aaa1c7a890db34ab30457,,,,,,,,,12wokqv1u0.csv
,,,,,audio-keyboard-response,509,2.1.0,818241,67f9b647dcd4755a0f10984c,6969c6242409f4b0184101e3,696aaa1c7a890db34ab30457,1560.0,audio/493_724_B3.wav,d,493.0,724.0,672.0,sharp,,12wokqv1u0.csv
,,,,,html-keyboard-response,510,2.1.0,818758,67f9b647dcd4755a0f10984c,6969c6242409f4b0184101e3,696aaa1c7a890db34ab30457,,,,,,,,,12wokqv1u0.csv
,,,,,audio-keyboard-response,511,2.1.0,820302,67f9b647dcd4755a0f10984c,6969c6242409f4b0184101e3,696aaa1c7a890db34ab30457,1539.0,audio/573_716_B3.wav,d,573.0,716.0,493.0,sharp,,12wokqv1u0.csv
,,,,,html-keyboard-response,512,2.1.0,820812,67f9b647dcd4755a0f10984c,6969c6242409f4b0184101e3,696aaa1c7a890db34ab30457,,,,,,,,,12wokqv1u0.csv
,,,,,audio-keyboard-response,513,2.1.0,822300,67f9b647dcd4755a0f10984c,6969c6242409f4b0184101e3,696aaa1c7a890db34ab30457,1488.0,audio/493_511_B1.wav,d,493.0,511.0,573.0,sharp,,12wokqv1u0.csv
,,,,,html-keyboard-response,514,2.1.0,822815,67f9b647dcd4755a0f10984c,6969c6242409f4b0184101e3,696aaa1c7a890db34ab30457,,,,,,,,,12wokqv1u0.csv
,,,,,audio-keyboard-response,515,2.1.0,824419,67f9b647dcd4755a0f10984c,6969c6242409f4b0184101e3,696aaa1c7a890db34ab30457,1608.0,audio/672_620_B3.wav,k,672.0,620.0,493.0,dull,,12wokqv1u0.csv
,,,,,html-keyboard-response,516,2.1.0,824923,67f9b647dcd4755a0f10984c,6969c6242409f4b0184101e3,696aaa1c7a890db34ab30457,,,,,,,,,12wokqv1u0.csv
,,,,,audio-keyboard-response,517,2.1.0,826202,67f9b647dcd4755a0f10984c,6969c6242409f4b0184101e3,696aaa1c7a890db34ab30457,1280.0,audio/573_512_B1.wav,d,573.0,512.0,672.0,sharp,,12wokqv1u0.csv
,,,,,html-keyboard-response,518,2.1.0,826705,67f9b647dcd4755a0f10984c,6969c6242409f4b0184101e3,696aaa1c7a890db34ab30457,,,,,,,,,12wokqv1u0.csv
,,,,,audio-keyboard-response,519,2.1.0,829041,67f9b647dcd4755a0f10984c,6969c6242409f4b0184101e3,696aaa1c7a890db34ab30457,2341.0,audio/493_709_B3.wav,k,493.0,709.0,573.0,dull,,12wokqv1u0.csv
,,,,,html-keyboard-response,520,2.1.0,829558,67f9b647dcd4755a0f10984c,6969c6242409f4b0184101e3,696aaa1c7a890db34ab30457,,,,,,,,,12wokqv1u0.csv
,,,,,audio-keyboard-response,521,2.1.0,831013,67f9b647dcd4755a0f10984c,6969c6242409f4b0184101e3,696aaa1c7a890db34ab30457,1451.0,audio/752_708_B4.wav,k,752.0,708.0,493.0,dull,,12wokqv1u0.csv
,,,,,html-keyboard-response,522,2.1.0,831517,67f9b647dcd4755a0f10984c,6969c6242409f4b0184101e3,696aaa1c7a890db34ab30457,,,,,,,,,12wokqv1u0.csv
,,,,,audio-keyboard-response,523,2.1.0,832842,67f9b647dcd4755a0f10984c,6969c6242409f4b0184101e3,696aaa1c7a890db34ab30457,1320.0,audio/752_614_B4.wav,k,752.0,614.0,752.0,dull,,12wokqv1u0.csv
,,,,,html-keyboard-response,524,2.1.0,833348,67f9b647dcd4755a0f10984c,6969c6242409f4b0184101e3,696aaa1c7a890db34ab30457,,,,,,,,,12wokqv1u0.csv
,,,,,audio-keyboard-response,525,2.1.0,835562,67f9b647dcd4755a0f10984c,6969c6242409f4b0184101e3,696aaa1c7a890db34ab30457,2211.0,audio/752_539_B2.wav,d,752.0,539.0,752.0,sharp,,12wokqv1u0.csv
