"success","timeout","failed_images","failed_audio","failed_video","trial_type","trial_index","plugin_version","time_elapsed","subject_id","study_id","session_id","rt","stimulus","response","spk","sentence_id","prev_spk","label","correct"
"true","false","[]","[]","[]","preload","0","2.1.0","13122","","","","","","","","","","",""
"","","","","","html-button-response","1","2.1.0","32627","","","","19502","
        <div style=""font-size: 16px; text-align: center; margin-top: 25px; margin-right: 100px; margin-left: 100px; margin-bottom: 25px;"">
            <img src=""./image/SUSig_2color_Stree_Left.png"" alt=""Stanford Logo"" style=""max-width: 500px; margin-bottom: 20px;"">
            <h3>DESCRIPTION</h3>
            <p>You are invited to participate in a research study. Its general purpose is to understand how people perceive spoken language. We are interested in how people make use of varying properties of language to infer social information about a speaker. In this study, you will hear spoken sentences, and you will be asked to make simple decisions about the speaker of each sentence. Following this, you will be asked to complete a short demographic survey. Participation in this research is voluntary, and you are free to withdraw your consent at any time.</p>
            <h3>TIME INVOLVEMENT</h3> 
            <p>Your participation will take approximately 15 to 20 minutes.</p>
            <h3>PAYMENT</h3> 
            <p>You will be paid at the posted rate.</p>
            <h3>PRIVACY AND CONFIDENTIALITY</h3> 
            <p>The risks associated with this study are minimal. This judgment is based on a large body of experience with the same or similar procedures with people of similar ages, sex, origins, etc. Study data will be stored securely, in compliance with Stanford University standards, minimizing the risk of confidentiality breach. Your individual privacy will be maintained during the research and in all published and written data resulting from the study.</p>
            <h3>CONTACT INFORMATION</h3>
            <p>If you have any questions, concerns or complaints about this research study, its procedures, risks and benefits, you should contact the Protocol Director, Grace Brown, at (616) 498-8188. If you are not satisfied with how this study is being conducted, or if you have any concerns, complaints, or general questions about the research or your rights as a participant, please contact the Stanford Institutional Review Board (IRB) to speak to someone independent of the research team at (650) 723-2480 or toll free at 1-866-680-2906. You can also write to the Stanford IRB, Stanford University, 1705 El Camino Real, Palo Alto, CA 94306 USA.</p> 
            <p>Please save or print a copy of this page for your records</p>
            <p>If you agree to participate in this research, please click the 'Continue' button.</p>
        </div>
    ","0","","","","",""
"","","","","","html-button-response","2","2.1.0","33509","","","","867","
    <div class=""gen_ins"">
    <p>Before the experiment begins, we'd like to do a quick audio check. During the audio check, you'll hear two tones in a row, and then be asked to select which tone was quieter. Sometimes, the two tones will be the same.<br><br>If the first tone was quieter, press '1', and if the second tone was quieter, press '2'. If both tones seemed about the same, press '0'.<br><br>When you're ready, click 'Start Check' to begin the audio check.</p>
    </div>
    ","0","","","","",""
"","","","","","html-keyboard-response","3","2.1.0","33525","","","","null"," ","null","","","","",""
"","","","","","audio-keyboard-response","4","2.1.0","35706","","","","null","audio/OI.wav","null","","","","",""
"","","","","","html-keyboard-response","5","2.1.0","36022","","","","310","
  <div class=""quietest-container"">
    <div>
      <p class=""quietest"">Which sound was the quietest?</p>
    </div>
    <div class=""yes-no"">
      <div class=""quietest_option"">
        <p>FIRST</p><p>Press 1</p>
      </div>
      <div class=""quietest_option"">
        <p>SECOND</p><p>Press 2</p>
      </div>
      <div class=""quietest_option"">
        <p>NONE</p><p>Press 0</p>
      </div>
    </div>
  </div>
","1","","","","",""
"","","","","","audio-keyboard-response","6","2.1.0","38917","","","","null","audio/IQ.wav","null","","","","",""
"","","","","","html-keyboard-response","7","2.1.0","39387","","","","462","
  <div class=""quietest-container"">
    <div>
      <p class=""quietest"">Which sound was the quietest?</p>
    </div>
    <div class=""yes-no"">
      <div class=""quietest_option"">
        <p>FIRST</p><p>Press 1</p>
      </div>
      <div class=""quietest_option"">
        <p>SECOND</p><p>Press 2</p>
      </div>
      <div class=""quietest_option"">
        <p>NONE</p><p>Press 0</p>
      </div>
    </div>
  </div>
","2","","","","",""
"","","","","","audio-keyboard-response","8","2.1.0","42276","","","","null","audio/IQ.wav","null","","","","",""
"","","","","","html-keyboard-response","9","2.1.0","42679","","","","400","
  <div class=""quietest-container"">
    <div>
      <p class=""quietest"">Which sound was the quietest?</p>
    </div>
    <div class=""yes-no"">
      <div class=""quietest_option"">
        <p>FIRST</p><p>Press 1</p>
      </div>
      <div class=""quietest_option"">
        <p>SECOND</p><p>Press 2</p>
      </div>
      <div class=""quietest_option"">
        <p>NONE</p><p>Press 0</p>
      </div>
    </div>
  </div>
","2","","","","",""
"","","","","","audio-keyboard-response","10","2.1.0","45571","","","","null","audio/OI.wav","null","","","","",""
"","","","","","html-keyboard-response","11","2.1.0","46528","","","","955","
  <div class=""quietest-container"">
    <div>
      <p class=""quietest"">Which sound was the quietest?</p>
    </div>
    <div class=""yes-no"">
      <div class=""quietest_option"">
        <p>FIRST</p><p>Press 1</p>
      </div>
      <div class=""quietest_option"">
        <p>SECOND</p><p>Press 2</p>
      </div>
      <div class=""quietest_option"">
        <p>NONE</p><p>Press 0</p>
      </div>
    </div>
  </div>
","0","","","","",""
"","","","","","audio-keyboard-response","12","2.1.0","49418","","","","null","audio/IO.wav","null","","","","",""
"","","","","","html-keyboard-response","13","2.1.0","49827","","","","407","
  <div class=""quietest-container"">
    <div>
      <p class=""quietest"">Which sound was the quietest?</p>
    </div>
    <div class=""yes-no"">
      <div class=""quietest_option"">
        <p>FIRST</p><p>Press 1</p>
      </div>
      <div class=""quietest_option"">
        <p>SECOND</p><p>Press 2</p>
      </div>
      <div class=""quietest_option"">
        <p>NONE</p><p>Press 0</p>
      </div>
    </div>
  </div>
","1","","","","",""
"","","","","","audio-keyboard-response","14","2.1.0","52713","","","","null","audio/QI.wav","null","","","","",""
"","","","","","html-keyboard-response","15","2.1.0","53105","","","","391","
  <div class=""quietest-container"">
    <div>
      <p class=""quietest"">Which sound was the quietest?</p>
    </div>
    <div class=""yes-no"">
      <div class=""quietest_option"">
        <p>FIRST</p><p>Press 1</p>
      </div>
      <div class=""quietest_option"">
        <p>SECOND</p><p>Press 2</p>
      </div>
      <div class=""quietest_option"">
        <p>NONE</p><p>Press 0</p>
      </div>
    </div>
  </div>
","1","","","","",""
"","","","","","audio-keyboard-response","16","2.1.0","55993","","","","null","audio/IO.wav","null","","","","",""
"","","","","","html-keyboard-response","17","2.1.0","56252","","","","257","
  <div class=""quietest-container"">
    <div>
      <p class=""quietest"">Which sound was the quietest?</p>
    </div>
    <div class=""yes-no"">
      <div class=""quietest_option"">
        <p>FIRST</p><p>Press 1</p>
      </div>
      <div class=""quietest_option"">
        <p>SECOND</p><p>Press 2</p>
      </div>
      <div class=""quietest_option"">
        <p>NONE</p><p>Press 0</p>
      </div>
    </div>
  </div>
","1","","","","",""
"","","","","","audio-keyboard-response","18","2.1.0","59139","","","","null","audio/IQ.wav","null","","","","",""
"","","","","","html-keyboard-response","19","2.1.0","59194","","","","52","
  <div class=""quietest-container"">
    <div>
      <p class=""quietest"">Which sound was the quietest?</p>
    </div>
    <div class=""yes-no"">
      <div class=""quietest_option"">
        <p>FIRST</p><p>Press 1</p>
      </div>
      <div class=""quietest_option"">
        <p>SECOND</p><p>Press 2</p>
      </div>
      <div class=""quietest_option"">
        <p>NONE</p><p>Press 0</p>
      </div>
    </div>
  </div>
","2","","","","",""
"","","","","","html-keyboard-response","20","2.1.0","60213","","","","null"," ","null","","","","",""
"","","","","","html-keyboard-response","21","2.1.0","60215","","","","null","
    <div class=""gen_ins"">
      <p>
        The results of the audio check suggest you may not be wearing headphones,
        as is required for participation in this experiment.
        <br><br>
        If you'd like put on headphones and continue, or believe you're getting
        this message in error, please try the audio check again.
        Otherwise, please return to Prolific.
        <br><br>
        When you're ready, press the space bar to restart the audio check.
      </p>
    </div>
  ","null","","","","",""
"","","","","","audio-keyboard-response","22","2.1.0","60226","","","","null","audio/silence.wav","null","","","","",""
"","","","","","html-keyboard-response","23","2.1.0","60228","","","","null"," ","null","","","","",""
"","","","","","audio-keyboard-response","24","2.1.0","60236","","","","null","audio/silence.wav","null","","","","",""
"","","","","","html-keyboard-response","25","2.1.0","60238","","","","null"," ","null","","","","",""
"","","","","","audio-keyboard-response","26","2.1.0","60248","","","","null","audio/silence.wav","null","","","","",""
"","","","","","html-keyboard-response","27","2.1.0","60249","","","","null"," ","null","","","","",""
"","","","","","audio-keyboard-response","28","2.1.0","60258","","","","null","audio/silence.wav","null","","","","",""
"","","","","","html-keyboard-response","29","2.1.0","60261","","","","null"," ","null","","","","",""
"","","","","","audio-keyboard-response","30","2.1.0","60269","","","","null","audio/silence.wav","null","","","","",""
"","","","","","html-keyboard-response","31","2.1.0","60270","","","","null"," ","null","","","","",""
"","","","","","audio-keyboard-response","32","2.1.0","60280","","","","null","audio/silence.wav","null","","","","",""
"","","","","","html-keyboard-response","33","2.1.0","60280","","","","null"," ","null","","","","",""
"","","","","","audio-keyboard-response","34","2.1.0","60290","","","","null","audio/silence.wav","null","","","","",""
"","","","","","html-keyboard-response","35","2.1.0","60291","","","","null"," ","null","","","","",""
"","","","","","audio-keyboard-response","36","2.1.0","60300","","","","null","audio/silence.wav","null","","","","",""
"","","","","","html-keyboard-response","37","2.1.0","60301","","","","null"," ","null","","","","",""
"","","","","","html-keyboard-response","38","2.1.0","60313","","","","null"," ","null","","","","",""
"","","","","","html-keyboard-response","39","2.1.0","60313","","","","null","
    <div class=""gen_ins"">
      <p>
        The results of the audio check suggest that you're not wearing headphones,
        as is required for participation in this experiment.
        <br><br>
        Please close this window and return to Prolific.
      </p>
    </div>
  ","null","","","","",""
"","","","","","html-keyboard-response","40","2.1.0","61525","","","","1212","
    <div class=""gen_ins"">
      <p>
        Thank you for completing the audio check.
        Please press the space bar to continue to the experiment.
      </p>
    </div>
  "," ","","","","",""
"","","","","","html-button-response","41","2.1.0","62902","","","","1373","
    <div class=""gen_ins""; style=""font-size: 16px; text-align: center; margin-top: 25px; margin-right: 100px; margin-left: 100px; margin-bottom: 25px;"">
        <p>In this study, you will listen to sentences produced by a variety of speakers. For each trial, you will hear one of these sentences. While the clip plays, you will be prompted to select one of two labels that best describes the speaker. To select a response, press either the ‘D’ or ‘K’ key on your keyboard. Please respond as quickly as possible. If you do not respond within 10 seconds, the experiment will advance automatically.</p>
        <p>This is a pilot. There may be bugs. </p>
        <p>If you understand the instructions and are ready to begin the practice trials, click ‘Continue’.</p>
    </div>
    ","0","","","","",""
"","","","","","html-keyboard-response","42","2.1.0","65908","","","","null","
  <div class=""header_container""><div class=""header"">BLOCK 1</div></div>
  ","null","","","","",""
"","","","","","audio-keyboard-response","43","2.1.0","69132","","","","3221","audio/672_708_B4.wav","k","672","708","","comfortable",""
"","","","","","html-keyboard-response","44","2.1.0","69639","","","","null","","null","","","","",""
"","","","","","audio-keyboard-response","45","2.1.0","71803","","","","2160","audio/672_538_B2.wav","k","672","538","672","comfortable",""
"","","","","","html-keyboard-response","46","2.1.0","72312","","","","null","","null","","","","",""
"","","","","","audio-keyboard-response","47","2.1.0","74568","","","","2261","audio/752_608_B4.wav","d","752","608","672","awkward",""
"","","","","","html-keyboard-response","48","2.1.0","75076","","","","null","","null","","","","",""
"","","","","","audio-keyboard-response","49","2.1.0","77090","","","","2011","audio/573_618_B3.wav","d","573","618","752","awkward",""
"","","","","","html-keyboard-response","50","2.1.0","77599","","","","null","","null","","","","",""
"","","","","","audio-keyboard-response","51","2.1.0","79984","","","","2384","audio/573_623_B4.wav","d","573","623","573","awkward",""
"","","","","","html-keyboard-response","52","2.1.0","80491","","","","null","","null","","","","",""
"","","","","","audio-keyboard-response","53","2.1.0","82494","","","","2005","audio/493_534_B1.wav","k","493","534","573","comfortable",""
"","","","","","html-keyboard-response","54","2.1.0","83001","","","","null","","null","","","","",""
"","","","","","audio-keyboard-response","55","2.1.0","85020","","","","2016","audio/672_511_B1.wav","k","672","511","493","comfortable",""
"","","","","","html-keyboard-response","56","2.1.0","85528","","","","null","","null","","","","",""
"","","","","","audio-keyboard-response","57","2.1.0","88616","","","","3088","audio/672_720_B3.wav","k","672","720","672","comfortable",""
"","","","","","html-keyboard-response","58","2.1.0","89118","","","","null","","null","","","","",""
"","","","","","audio-keyboard-response","59","2.1.0","91514","","","","2395","audio/493_506_B1.wav","k","493","506","672","comfortable",""
"","","","","","html-keyboard-response","60","2.1.0","92018","","","","null","","null","","","","",""
"","","","","","audio-keyboard-response","61","2.1.0","95597","","","","3579","audio/493_625_B4.wav","k","493","625","493","comfortable",""
"","","","","","html-keyboard-response","62","2.1.0","96100","","","","null","","null","","","","",""
"","","","","","audio-keyboard-response","63","2.1.0","98305","","","","2203","audio/573_515_B1.wav","d","573","515","493","awkward",""
"","","","","","html-keyboard-response","64","2.1.0","98808","","","","null","","null","","","","",""
"","","","","","audio-keyboard-response","65","2.1.0","101553","","","","2741","audio/752_537_B2.wav","d","752","537","573","awkward",""
"","","","","","html-keyboard-response","66","2.1.0","102058","","","","null","","null","","","","",""
"","","","","","audio-keyboard-response","67","2.1.0","105196","","","","3136","audio/573_716_B3.wav","d","573","716","752","awkward",""
"","","","","","html-keyboard-response","68","2.1.0","105701","","","","null","","null","","","","",""
"","","","","","audio-keyboard-response","69","2.1.0","108593","","","","2891","audio/493_723_B3.wav","k","493","723","573","comfortable",""
"","","","","","html-keyboard-response","70","2.1.0","109096","","","","null","","null","","","","",""
"","","","","","audio-keyboard-response","71","2.1.0","110913","","","","1819","audio/573_523_B1.wav","d","573","523","493","awkward",""
"","","","","","html-keyboard-response","72","2.1.0","111420","","","","null","","null","","","","",""
"","","","","","audio-keyboard-response","73","2.1.0","114159","","","","2741","audio/672_724_B4.wav","d","672","724","573","awkward",""
"","","","","","html-keyboard-response","74","2.1.0","114662","","","","null","","null","","","","",""
"","","","","","audio-keyboard-response","75","2.1.0","117543","","","","2880","audio/752_624_B4.wav","d","752","624","672","awkward",""
"","","","","","html-keyboard-response","76","2.1.0","118049","","","","null","","null","","","","",""
"","","","","","audio-keyboard-response","77","2.1.0","120119","","","","2069","audio/493_532_B1.wav","k","493","532","752","comfortable",""
"","","","","","html-keyboard-response","78","2.1.0","120626","","","","null","","null","","","","",""
"","","","","","audio-keyboard-response","79","2.1.0","121636","","","","1013","audio/672_611_B4.wav","k","672","611","493","comfortable",""
"","","","","","html-keyboard-response","80","2.1.0","122139","","","","null","","null","","","","",""
"","","","","","audio-keyboard-response","81","2.1.0","123409","","","","1269","audio/752_727_B4.wav","d","752","727","672","awkward",""
"","","","","","html-keyboard-response","82","2.1.0","123916","","","","null","","null","","","","",""
"","","","","","audio-keyboard-response","83","2.1.0","125865","","","","1952","audio/493_509_redo2.wav","k","493","509","752","comfortable",""
"","","","","","html-keyboard-response","84","2.1.0","126372","","","","null","","null","","","","",""
"","","","","","audio-keyboard-response","85","2.1.0","127811","","","","1435","audio/493_535_B2.wav","k","493","535","493","comfortable",""
"","","","","","html-keyboard-response","86","2.1.0","128317","","","","null","","null","","","","",""
"","","","","","audio-keyboard-response","87","2.1.0","130065","","","","1749","audio/493_522_B2.wav","k","493","522","493","comfortable",""
"","","","","","html-keyboard-response","88","2.1.0","130572","","","","null","","null","","","","",""
"","","","","","audio-keyboard-response","89","2.1.0","132671","","","","2075","audio/752_606_B4.wav","d","752","606","493","awkward",""
"","","","","","html-keyboard-response","90","2.1.0","133175","","","","null","","null","","","","",""
"","","","","","audio-keyboard-response","91","2.1.0","135447","","","","2272","audio/573_526_B2.wav","d","573","526","752","awkward",""
"","","","","","html-keyboard-response","92","2.1.0","135949","","","","null","","null","","","","",""
"","","","","","audio-keyboard-response","93","2.1.0","138263","","","","2309","audio/573_704_B3.wav","d","573","704","573","awkward",""
"","","","","","html-keyboard-response","94","2.1.0","138772","","","","null","","null","","","","",""
"","","","","","audio-keyboard-response","95","2.1.0","140216","","","","1445","audio/752_709_B4.wav","d","752","709","573","awkward",""
"","","","","","html-keyboard-response","96","2.1.0","140725","","","","null","","null","","","","",""
"","","","","","audio-keyboard-response","97","2.1.0","142190","","","","1467","audio/672_615_B4.wav","k","672","615","752","comfortable",""
"","","","","","html-keyboard-response","98","2.1.0","142696","","","","null","","null","","","","",""
"","","","","","audio-keyboard-response","99","2.1.0","144906","","","","2208","audio/752_614_B4.wav","d","752","614","672","awkward",""
"","","","","","html-keyboard-response","100","2.1.0","145412","","","","null","","null","","","","",""
"","","","","","audio-keyboard-response","101","2.1.0","147561","","","","2149","audio/573_612_B4.wav","k","573","612","752","comfortable",""
"","","","","","html-keyboard-response","102","2.1.0","148065","","","","null","","null","","","","",""
"","","","","","audio-keyboard-response","103","2.1.0","150668","","","","2603","audio/493_710_B3.wav","d","493","710","573","awkward",""
"","","","","","html-keyboard-response","104","2.1.0","151177","","","","null","","null","","","","",""
"","","","","","audio-keyboard-response","105","2.1.0","152719","","","","1541","audio/573_533_B2.wav","k","573","533","493","comfortable",""
"","","","","","html-keyboard-response","106","2.1.0","153226","","","","null","","null","","","","",""
"","","","","","audio-keyboard-response","107","2.1.0","154304","","","","1077","audio/573_619_B3.wav","k","573","619","573","comfortable",""
"","","","","","html-keyboard-response","108","2.1.0","154807","","","","null","","null","","","","",""
"","","","","","audio-keyboard-response","109","2.1.0","156869","","","","2059","audio/752_617_B4.wav","d","752","617","573","awkward",""
"","","","","","html-keyboard-response","110","2.1.0","157376","","","","null","","null","","","","",""
"","","","","","audio-keyboard-response","111","2.1.0","158794","","","","1419","audio/752_713_B4.wav","d","752","713","752","awkward",""
"","","","","","html-keyboard-response","112","2.1.0","159300","","","","null","","null","","","","",""
"","","","","","audio-keyboard-response","113","2.1.0","160525","","","","1221","audio/672_722_B3.wav","k","672","722","752","comfortable",""
"","","","","","html-keyboard-response","114","2.1.0","161030","","","","null","","null","","","","",""
"","","","","","audio-keyboard-response","115","2.1.0","162047","","","","1013","audio/672_715_B4.wav","k","672","715","672","comfortable",""
"","","","","","html-keyboard-response","116","2.1.0","162551","","","","null","","null","","","","",""
"","","","","","audio-keyboard-response","117","2.1.0","164466","","","","1915","audio/752_604_B4.wav","d","752","604","672","awkward",""
"","","","","","html-keyboard-response","118","2.1.0","164971","","","","null","","null","","","","",""
"","","","","","audio-keyboard-response","119","2.1.0","166028","","","","1061","audio/672_519_B2.wav","k","672","519","752","comfortable",""
"","","","","","html-keyboard-response","120","2.1.0","166535","","","","null","","null","","","","",""
"","","","","","audio-keyboard-response","121","2.1.0","168888","","","","2352","audio/493_607_B3.wav","k","493","607","672","comfortable",""
"","","","","","html-keyboard-response","122","2.1.0","169392","","","","null","","null","","","","",""
"","","","","","audio-keyboard-response","123","2.1.0","170872","","","","1483","audio/752_718_redo2.wav","d","752","718","493","awkward",""
"","","","","","html-keyboard-response","124","2.1.0","171379","","","","null","","null","","","","",""
"","","","","","audio-keyboard-response","125","2.1.0","173476","","","","2096","audio/672_513_B2.wav","k","672","513","752","comfortable",""
"","","","","","html-keyboard-response","126","2.1.0","173984","","","","null","","null","","","","",""
"","","","","","audio-keyboard-response","127","2.1.0","175928","","","","1947","audio/573_508_B1.wav","k","573","508","672","comfortable",""
"","","","","","html-keyboard-response","128","2.1.0","176433","","","","null","","null","","","","",""
"","","","","","audio-keyboard-response","129","2.1.0","177524","","","","1093","audio/752_616_B4.wav","d","752","616","573","awkward",""
"","","","","","html-keyboard-response","130","2.1.0","178027","","","","null","","null","","","","",""
"","","","","","audio-keyboard-response","131","2.1.0","180645","","","","2619","audio/672_717_B4.wav","k","672","717","752","comfortable",""
"","","","","","html-keyboard-response","132","2.1.0","181149","","","","null","","null","","","","",""
"","","","","","audio-keyboard-response","133","2.1.0","183352","","","","2203","audio/573_507_B1.wav","k","573","507","672","comfortable",""
"","","","","","html-keyboard-response","134","2.1.0","183857","","","","null","","null","","","","",""
"","","","","","audio-keyboard-response","135","2.1.0","185328","","","","1472","audio/493_613_B4.wav","k","493","613","573","comfortable",""
"","","","","","html-keyboard-response","136","2.1.0","185831","","","","null","","null","","","","",""
"","","","","","audio-keyboard-response","137","2.1.0","186881","","","","1051","audio/493_510_B1.wav","k","493","510","493","comfortable",""
"","","","","","html-keyboard-response","138","2.1.0","187386","","","","null","","null","","","","",""
"","","","","","html-keyboard-response","139","2.1.0","190393","","","","null","
  <div class=""header_container""><div class=""header"">BLOCK 2</div></div>
  ","null","","","","",""
"","","","","","audio-keyboard-response","140","2.1.0","192455","","","","2064","audio/752_519_B2.wav","k","752","519","493","unfriendly",""
"","","","","","html-keyboard-response","141","2.1.0","192962","","","","null","","null","","","","",""
"","","","","","audio-keyboard-response","142","2.1.0","194858","","","","1899","audio/493_534_B1.wav","d","493","534","752","friendly",""
"","","","","","html-keyboard-response","143","2.1.0","195365","","","","null","","null","","","","",""
"","","","","","audio-keyboard-response","144","2.1.0","196818","","","","1456","audio/752_624_B4.wav","k","752","624","493","unfriendly",""
"","","","","","html-keyboard-response","145","2.1.0","197326","","","","null","","null","","","","",""
"","","","","","audio-keyboard-response","146","2.1.0","198460","","","","1131","audio/672_538_B2.wav","d","672","538","752","friendly",""
"","","","","","html-keyboard-response","147","2.1.0","198964","","","","null","","null","","","","",""
"","","","","","audio-keyboard-response","148","2.1.0","200171","","","","1205","audio/672_724_B4.wav","d","672","724","672","friendly",""
"","","","","","html-keyboard-response","149","2.1.0","200679","","","","null","","null","","","","",""
"","","","","","audio-keyboard-response","150","2.1.0","203663","","","","2981","audio/672_531_B1.wav","d","672","531","672","friendly",""
"","","","","","html-keyboard-response","151","2.1.0","204170","","","","null","","null","","","","",""
"","","","","","audio-keyboard-response","152","2.1.0","206869","","","","2699","audio/752_605_B3.wav","k","752","605","672","unfriendly",""
"","","","","","html-keyboard-response","153","2.1.0","207372","","","","null","","null","","","","",""
"","","","","","audio-keyboard-response","154","2.1.0","209253","","","","1883","audio/672_508_B2.wav","d","672","508","752","friendly",""
"","","","","","html-keyboard-response","155","2.1.0","209760","","","","null","","null","","","","",""
"","","","","","audio-keyboard-response","156","2.1.0","212935","","","","3179","audio/573_714_B3.wav","k","573","714","672","unfriendly",""
"","","","","","html-keyboard-response","157","2.1.0","213441","","","","null","","null","","","","",""
"","","","","","audio-keyboard-response","158","2.1.0","215629","","","","2192","audio/493_524_B2.wav","d","493","524","573","friendly",""
"","","","","","html-keyboard-response","159","2.1.0","216135","","","","null","","null","","","","",""
"","","","","","audio-keyboard-response","160","2.1.0","218519","","","","2379","audio/672_609_B4.wav","d","672","609","493","friendly",""
"","","","","","html-keyboard-response","161","2.1.0","219024","","","","null","","null","","","","",""
"","","","","","audio-keyboard-response","162","2.1.0","222103","","","","3083","audio/493_518_B1.wav","d","493","518","672","friendly",""
"","","","","","html-keyboard-response","163","2.1.0","222611","","","","null","","null","","","","",""
"","","","","","audio-keyboard-response","164","2.1.0","225462","","","","2848","audio/752_725_B4.wav","k","752","725","493","unfriendly",""
"","","","","","html-keyboard-response","165","2.1.0","225968","","","","null","","null","","","","",""
"","","","","","audio-keyboard-response","166","2.1.0","228944","","","","2976","audio/573_715_B3.wav","k","573","715","752","unfriendly",""
"","","","","","html-keyboard-response","167","2.1.0","229446","","","","null","","null","","","","",""
"","","","","","audio-keyboard-response","168","2.1.0","231949","","","","2507","audio/752_522_B2.wav","k","752","522","573","unfriendly",""
"","","","","","html-keyboard-response","169","2.1.0","232456","","","","null","","null","","","","",""
"","","","","","audio-keyboard-response","170","2.1.0","235508","","","","3051","audio/672_535_B1.wav","d","672","535","752","friendly",""
"","","","","","html-keyboard-response","171","2.1.0","236015","","","","null","","null","","","","",""
"","","","","","audio-keyboard-response","172","2.1.0","238481","","","","2464","audio/493_507_B2.wav","d","493","507","672","friendly",""
"","","","","","html-keyboard-response","173","2.1.0","239036","","","","null","","null","","","","",""
"","","","","","audio-keyboard-response","174","2.1.0","241354","","","","2320","audio/493_607_B3.wav","d","493","607","493","friendly",""
"","","","","","html-keyboard-response","175","2.1.0","241857","","","","null","","null","","","","",""
"","","","","","audio-keyboard-response","176","2.1.0","243635","","","","1781","audio/752_526_B2.wav","k","752","526","493","unfriendly",""
"","","","","","html-keyboard-response","177","2.1.0","244142","","","","null","","null","","","","",""
"","","","","","audio-keyboard-response","178","2.1.0","245744","","","","1600","audio/752_615_B3.wav","k","752","615","752","unfriendly",""
"","","","","","html-keyboard-response","179","2.1.0","246251","","","","null","","null","","","","",""
"","","","","","audio-keyboard-response","180","2.1.0","248384","","","","2133","audio/493_721_B3.wav","d","493","721","752","friendly",""
"","","","","","html-keyboard-response","181","2.1.0","248891","","","","null","","null","","","","",""
"","","","","","audio-keyboard-response","182","2.1.0","249924","","","","1035","audio/672_614_B4.wav","d","672","614","493","friendly",""
"","","","","","html-keyboard-response","183","2.1.0","250427","","","","null","","null","","","","",""
"","","","","","audio-keyboard-response","184","2.1.0","252322","","","","1899","audio/573_512_B1.wav","k","573","512","672","unfriendly",""
"","","","","","html-keyboard-response","185","2.1.0","252825","","","","null","","null","","","","",""
"","","","","","audio-keyboard-response","186","2.1.0","254404","","","","1579","audio/493_510_B1.wav","d","493","510","573","friendly",""
"","","","","","html-keyboard-response","187","2.1.0","254908","","","","null","","null","","","","",""
"","","","","","audio-keyboard-response","188","2.1.0","256378","","","","1472","audio/573_532_redo.wav","k","573","532","493","unfriendly",""
"","","","","","html-keyboard-response","189","2.1.0","256884","","","","null","","null","","","","",""
"","","","","","audio-keyboard-response","190","2.1.0","258100","","","","1216","audio/493_606_B3.wav","d","493","606","573","friendly",""
"","","","","","html-keyboard-response","191","2.1.0","258601","","","","null","","null","","","","",""
"","","","","","audio-keyboard-response","192","2.1.0","261086","","","","2485","audio/752_506_B2.wav","d","752","506","493","friendly",""
"","","","","","html-keyboard-response","193","2.1.0","261591","","","","null","","null","","","","",""
"","","","","","audio-keyboard-response","194","2.1.0","263020","","","","1429","audio/672_722_B3.wav","d","672","722","752","friendly",""
"","","","","","html-keyboard-response","195","2.1.0","263537","","","","null","","null","","","","",""
"","","","","","audio-keyboard-response","196","2.1.0","265994","","","","2459","audio/752_509_B2.wav","k","752","509","672","unfriendly",""
"","","","","","html-keyboard-response","197","2.1.0","266499","","","","null","","null","","","","",""
"","","","","","audio-keyboard-response","198","2.1.0","268861","","","","2363","audio/573_540_B1.wav","k","573","540","752","unfriendly",""
"","","","","","html-keyboard-response","199","2.1.0","269363","","","","null","","null","","","","",""
"","","","","","audio-keyboard-response","200","2.1.0","271657","","","","2293","audio/493_723_B3.wav","d","493","723","573","friendly",""
"","","","","","html-keyboard-response","201","2.1.0","272163","","","","null","","null","","","","",""
"","","","","","audio-keyboard-response","202","2.1.0","274103","","","","1941","audio/672_704_B4.wav","d","672","704","493","friendly",""
"","","","","","html-keyboard-response","203","2.1.0","274610","","","","null","","null","","","","",""
"","","","","","audio-keyboard-response","204","2.1.0","275814","","","","1205","audio/493_621_B4.wav","d","493","621","672","friendly",""
"","","","","","html-keyboard-response","205","2.1.0","276322","","","","null","","null","","","","",""
"","","","","","audio-keyboard-response","206","2.1.0","277316","","","","992","audio/672_521_B2.wav","d","672","521","493","friendly",""
"","","","","","html-keyboard-response","207","2.1.0","277819","","","","null","","null","","","","",""
"","","","","","audio-keyboard-response","208","2.1.0","279383","","","","1568","audio/493_708_B3.wav","d","493","708","672","friendly",""
"","","","","","html-keyboard-response","209","2.1.0","279886","","","","null","","null","","","","",""
"","","","","","audio-keyboard-response","210","2.1.0","281387","","","","1499","audio/573_716_B3.wav","k","573","716","493","unfriendly",""
"","","","","","html-keyboard-response","211","2.1.0","281890","","","","null","","null","","","","",""
"","","","","","audio-keyboard-response","212","2.1.0","284346","","","","2453","audio/672_623_B3.wav","d","672","623","573","friendly",""
"","","","","","html-keyboard-response","213","2.1.0","284850","","","","null","","null","","","","",""
"","","","","","audio-keyboard-response","214","2.1.0","286552","","","","1701","audio/573_515_B1.wav","k","573","515","672","unfriendly",""
"","","","","","html-keyboard-response","215","2.1.0","287060","","","","null","","null","","","","",""
"","","","","","audio-keyboard-response","216","2.1.0","287924","","","","864","audio/573_617_B3.wav","k","573","617","573","unfriendly",""
"","","","","","html-keyboard-response","217","2.1.0","288427","","","","null","","null","","","","",""
"","","","","","audio-keyboard-response","218","2.1.0","289252","","","","827","audio/573_619_B3.wav","k","573","619","573","unfriendly",""
"","","","","","html-keyboard-response","219","2.1.0","289759","","","","null","","null","","","","",""
"","","","","","audio-keyboard-response","220","2.1.0","291248","","","","1488","audio/752_707_B3.wav","d","752","707","573","friendly",""
"","","","","","html-keyboard-response","221","2.1.0","291755","","","","null","","null","","","","",""
"","","","","","audio-keyboard-response","222","2.1.0","293695","","","","1941","audio/752_612_B3.wav","k","752","612","752","unfriendly",""
"","","","","","html-keyboard-response","223","2.1.0","294235","","","","null","","null","","","","",""
"","","","","","audio-keyboard-response","224","2.1.0","295403","","","","1173","audio/573_537_B1.wav","k","573","537","752","unfriendly",""
"","","","","","html-keyboard-response","225","2.1.0","295909","","","","null","","null","","","","",""
"","","","","","audio-keyboard-response","226","2.1.0","296636","","","","725","audio/573_720_B3.wav","k","573","720","573","unfriendly",""
"","","","","","html-keyboard-response","227","2.1.0","297143","","","","null","","null","","","","",""
"","","","","","audio-keyboard-response","228","2.1.0","298593","","","","1451","audio/752_727_B4.wav","k","752","727","573","unfriendly",""
"","","","","","html-keyboard-response","229","2.1.0","299097","","","","null","","null","","","","",""
"","","","","","audio-keyboard-response","230","2.1.0","300512","","","","1413","audio/493_511_B1.wav","d","493","511","752","friendly",""
"","","","","","html-keyboard-response","231","2.1.0","301057","","","","null","","null","","","","",""
"","","","","","audio-keyboard-response","232","2.1.0","302383","","","","1328","audio/672_719_B4.wav","d","672","719","493","friendly",""
"","","","","","html-keyboard-response","233","2.1.0","302890","","","","null","","null","","","","",""
"","","","","","audio-keyboard-response","234","2.1.0","303978","","","","1088","audio/573_618_B3.wav","k","573","618","672","unfriendly",""
"","","","","","html-keyboard-response","235","2.1.0","304483","","","","null","","null","","","","",""
"","","","","","html-button-response","236","2.1.0","306758","","","","2272","This is an attention check. Please select which labels you were using in the previous block.","2","","","","","true"
"","","","","","html-keyboard-response","237","2.1.0","309765","","","","null","
  <div class=""header_container""><div class=""header"">BLOCK 3</div></div>
  ","null","","","","",""
"","","","","","audio-keyboard-response","238","2.1.0","312558","","","","2795","audio/672_510_B1.wav","d","672","510","573","emotive",""
"","","","","","html-keyboard-response","239","2.1.0","313065","","","","null","","null","","","","",""
"","","","","","audio-keyboard-response","240","2.1.0","315069","","","","2005","audio/493_511_B1.wav","k","493","511","672","robotic",""
"","","","","","html-keyboard-response","241","2.1.0","315576","","","","null","","null","","","","",""
"","","","","","audio-keyboard-response","242","2.1.0","318452","","","","2875","audio/672_710_B3.wav","d","672","710","493","emotive",""
"","","","","","html-keyboard-response","243","2.1.0","318955","","","","null","","null","","","","",""
"","","","","","audio-keyboard-response","244","2.1.0","321298","","","","2347","audio/573_538_redo2.wav","k","573","538","672","robotic",""
"","","","","","html-keyboard-response","245","2.1.0","321804","","","","null","","null","","","","",""
"","","","","","audio-keyboard-response","246","2.1.0","324635","","","","2832","audio/672_540_B2.wav","d","672","540","573","emotive",""
"","","","","","html-keyboard-response","247","2.1.0","325140","","","","null","","null","","","","",""
"","","","","","audio-keyboard-response","248","2.1.0","326517","","","","1376","audio/493_519_redo2.wav","k","493","519","672","robotic",""
"","","","","","html-keyboard-response","249","2.1.0","327021","","","","null","","null","","","","",""
"","","","","","audio-keyboard-response","250","2.1.0","328662","","","","1643","audio/573_505_B1.wav","k","573","505","493","robotic",""
"","","","","","html-keyboard-response","251","2.1.0","329166","","","","null","","null","","","","",""
"","","","","","audio-keyboard-response","252","2.1.0","330162","","","","997","audio/573_625_B3.wav","k","573","625","573","robotic",""
"","","","","","html-keyboard-response","253","2.1.0","330666","","","","null","","null","","","","",""
"","","","","","audio-keyboard-response","254","2.1.0","333669","","","","3003","audio/752_714_B4.wav","k","752","714","573","robotic",""
"","","","","","html-keyboard-response","255","2.1.0","334177","","","","null","","null","","","","",""
"","","","","","audio-keyboard-response","256","2.1.0","336886","","","","2709","audio/573_720_B3.wav","k","573","720","752","robotic",""
"","","","","","html-keyboard-response","257","2.1.0","337387","","","","null","","null","","","","",""
"","","","","","audio-keyboard-response","258","2.1.0","340078","","","","2693","audio/493_705_B4.wav","d","493","705","573","emotive",""
"","","","","","html-keyboard-response","259","2.1.0","340583","","","","null","","null","","","","",""
"","","","","","audio-keyboard-response","260","2.1.0","342186","","","","1605","audio/573_520_B2.wav","k","573","520","493","robotic",""
"","","","","","html-keyboard-response","261","2.1.0","342723","","","","null","","null","","","","",""
"","","","","","audio-keyboard-response","262","2.1.0","345373","","","","2651","audio/752_508_B2.wav","d","752","508","573","emotive",""
"","","","","","html-keyboard-response","263","2.1.0","345879","","","","null","","null","","","","",""
"","","","","","audio-keyboard-response","264","2.1.0","348894","","","","3013","audio/493_537_B1.wav","d","493","537","752","emotive",""
"","","","","","html-keyboard-response","265","2.1.0","349401","","","","null","","null","","","","",""
"","","","","","audio-keyboard-response","266","2.1.0","351586","","","","2187","audio/672_604_B4.wav","d","672","604","493","emotive",""
"","","","","","html-keyboard-response","267","2.1.0","352090","","","","null","","null","","","","",""
"","","","","","audio-keyboard-response","268","2.1.0","353842","","","","1755","audio/573_521_B2.wav","k","573","521","672","robotic",""
"","","","","","html-keyboard-response","269","2.1.0","354346","","","","null","","null","","","","",""
"","","","","","audio-keyboard-response","270","2.1.0","356602","","","","2256","audio/752_607_B4.wav","k","752","607","573","robotic",""
"","","","","","html-keyboard-response","271","2.1.0","357105","","","","null","","null","","","","",""
"","","","","","audio-keyboard-response","272","2.1.0","359460","","","","2352","audio/672_534_B2.wav","d","672","534","752","emotive",""
"","","","","","html-keyboard-response","273","2.1.0","359963","","","","null","","null","","","","",""
"","","","","","audio-keyboard-response","274","2.1.0","362055","","","","2096","audio/573_721_B4.wav","d","573","721","672","emotive",""
"","","","","","html-keyboard-response","275","2.1.0","362561","","","","null","","null","","","","",""
"","","","","","audio-keyboard-response","276","2.1.0","365419","","","","2859","audio/493_611_B3.wav","k","493","611","573","robotic",""
"","","","","","html-keyboard-response","277","2.1.0","365959","","","","null","","null","","","","",""
"","","","","","audio-keyboard-response","278","2.1.0","367749","","","","1792","audio/573_507_B1.wav","k","573","507","493","robotic",""
"","","","","","html-keyboard-response","279","2.1.0","368257","","","","null","","null","","","","",""
"","","","","","audio-keyboard-response","280","2.1.0","370227","","","","1973","audio/672_522_B2.wav","d","672","522","573","emotive",""
"","","","","","html-keyboard-response","281","2.1.0","370735","","","","null","","null","","","","",""
"","","","","","audio-keyboard-response","282","2.1.0","372920","","","","2187","audio/752_618_B4.wav","k","752","618","672","robotic",""
"","","","","","html-keyboard-response","283","2.1.0","373428","","","","null","","null","","","","",""
"","","","","","audio-keyboard-response","284","2.1.0","376422","","","","2997","audio/752_718_redo2.wav","k","752","718","752","robotic",""
"","","","","","html-keyboard-response","285","2.1.0","376929","","","","null","","null","","","","",""
"","","","","","audio-keyboard-response","286","2.1.0","378803","","","","1872","audio/672_532_B2.wav","d","672","532","752","emotive",""
"","","","","","html-keyboard-response","287","2.1.0","379310","","","","null","","null","","","","",""
"","","","","","audio-keyboard-response","288","2.1.0","382128","","","","2816","audio/493_518_B1.wav","k","493","518","672","robotic",""
"","","","","","html-keyboard-response","289","2.1.0","382632","","","","null","","null","","","","",""
"","","","","","audio-keyboard-response","290","2.1.0","385368","","","","2736","audio/752_624_B4.wav","d","752","624","493","emotive",""
"","","","","","html-keyboard-response","291","2.1.0","385873","","","","null","","null","","","","",""
"","","","","","audio-keyboard-response","292","2.1.0","388410","","","","2539","audio/672_616_B3.wav","d","672","616","752","emotive",""
"","","","","","html-keyboard-response","293","2.1.0","388915","","","","null","","null","","","","",""
"","","","","","audio-keyboard-response","294","2.1.0","391509","","","","2592","audio/493_708_B3.wav","d","493","708","672","emotive",""
"","","","","","html-keyboard-response","295","2.1.0","392011","","","","null","","null","","","","",""
"","","","","","audio-keyboard-response","296","2.1.0","394744","","","","2736","audio/672_619_B4.wav","d","672","619","493","emotive",""
"","","","","","html-keyboard-response","297","2.1.0","395248","","","","null","","null","","","","",""
"","","","","","audio-keyboard-response","298","2.1.0","397824","","","","2576","audio/752_722_B4.wav","k","752","722","672","robotic",""
"","","","","","html-keyboard-response","299","2.1.0","398328","","","","null","","null","","","","",""
"","","","","","audio-keyboard-response","300","2.1.0","400628","","","","2299","audio/493_523_B1.wav","k","493","523","752","robotic",""
"","","","","","html-keyboard-response","301","2.1.0","401131","","","","null","","null","","","","",""
"","","","","","audio-keyboard-response","302","2.1.0","404215","","","","3088","audio/493_716_B4.wav","k","493","716","493","robotic",""
"","","","","","html-keyboard-response","303","2.1.0","404720","","","","null","","null","","","","",""
"","","","","","audio-keyboard-response","304","2.1.0","405680","","","","960","audio/672_509_B2.wav","d","672","509","493","emotive",""
"","","","","","html-keyboard-response","305","2.1.0","406183","","","","null","","null","","","","",""
"","","","","","audio-keyboard-response","306","2.1.0","408674","","","","2491","audio/752_533_B2.wav","d","752","533","672","emotive",""
"","","","","","html-keyboard-response","307","2.1.0","409177","","","","null","","null","","","","",""
"","","","","","audio-keyboard-response","308","2.1.0","411296","","","","2117","audio/493_719_B4.wav","d","493","719","752","emotive",""
"","","","","","html-keyboard-response","309","2.1.0","411803","","","","null","","null","","","","",""
"","","","","","audio-keyboard-response","310","2.1.0","415487","","","","3685","audio/752_715_B3.wav","k","752","715","493","robotic",""
"","","","","","html-keyboard-response","311","2.1.0","415995","","","","null","","null","","","","",""
"","","","","","audio-keyboard-response","312","2.1.0","417819","","","","1824","audio/493_724_B3.wav","d","493","724","752","emotive",""
"","","","","","html-keyboard-response","313","2.1.0","418322","","","","null","","null","","","","",""
"","","","","","audio-keyboard-response","314","2.1.0","419313","","","","992","audio/573_605_B3.wav","k","573","605","493","robotic",""
"","","","","","html-keyboard-response","315","2.1.0","419817","","","","null","","null","","","","",""
"","","","","","audio-keyboard-response","316","2.1.0","421095","","","","1280","audio/573_610_B3.wav","k","573","610","573","robotic",""
"","","","","","html-keyboard-response","317","2.1.0","421597","","","","null","","null","","","","",""
"","","","","","audio-keyboard-response","318","2.1.0","423636","","","","2037","audio/752_717_B3.wav","k","752","717","573","robotic",""
"","","","","","html-keyboard-response","319","2.1.0","424140","","","","null","","null","","","","",""
"","","","","","audio-keyboard-response","320","2.1.0","425821","","","","1685","audio/752_725_B4.wav","k","752","725","752","robotic",""
"","","","","","html-keyboard-response","321","2.1.0","426327","","","","null","","null","","","","",""
"","","","","","audio-keyboard-response","322","2.1.0","427512","","","","1184","audio/752_617_B4.wav","k","752","617","752","robotic",""
"","","","","","html-keyboard-response","323","2.1.0","428016","","","","null","","null","","","","",""
"","","","","","audio-keyboard-response","324","2.1.0","429193","","","","1179","audio/493_613_B4.wav","d","493","613","752","emotive",""
"","","","","","html-keyboard-response","325","2.1.0","429700","","","","null","","null","","","","",""
"","","","","","audio-keyboard-response","326","2.1.0","430774","","","","1077","audio/672_527_B1.wav","d","672","527","493","emotive",""
"","","","","","html-keyboard-response","327","2.1.0","431281","","","","null","","null","","","","",""
"","","","","","audio-keyboard-response","328","2.1.0","432239","","","","955","audio/573_621_B4.wav","k","573","621","672","robotic",""
"","","","","","html-keyboard-response","329","2.1.0","432746","","","","null","","null","","","","",""
"","","","","","audio-keyboard-response","330","2.1.0","434418","","","","1675","audio/672_524_B2.wav","d","672","524","573","emotive",""
"","","","","","html-keyboard-response","331","2.1.0","434926","","","","null","","null","","","","",""
"","","","","","audio-keyboard-response","332","2.1.0","436318","","","","1392","audio/573_506_B1.wav","k","573","506","672","robotic",""
"","","","","","html-keyboard-response","333","2.1.0","436825","","","","null","","null","","","","",""
"","","","","","html-keyboard-response","334","2.1.0","439829","","","","null","
  <div class=""header_container""><div class=""header"">BLOCK 4</div></div>
  ","null","","","","",""
"","","","","","audio-keyboard-response","335","2.1.0","442562","","","","2736","audio/573_534_B1.wav","k","573","534","573","calm",""
"","","","","","html-keyboard-response","336","2.1.0","443070","","","","null","","null","","","","",""
"","","","","","audio-keyboard-response","337","2.1.0","445205","","","","2133","audio/573_508_B1.wav","d","573","508","573","nervous",""
"","","","","","html-keyboard-response","338","2.1.0","445755","","","","null","","null","","","","",""
"","","","","","audio-keyboard-response","339","2.1.0","446971","","","","1216","audio/672_509_B2.wav","k","672","509","573","calm",""
"","","","","","html-keyboard-response","340","2.1.0","447474","","","","null","","null","","","","",""
"","","","","","audio-keyboard-response","341","2.1.0","449480","","","","2005","audio/672_522_B2.wav","k","672","522","672","calm",""
"","","","","","html-keyboard-response","342","2.1.0","449990","","","","null","","null","","","","",""
"","","","","","audio-keyboard-response","343","2.1.0","452103","","","","2117","audio/493_533_B2.wav","k","493","533","672","calm",""
"","","","","","html-keyboard-response","344","2.1.0","452607","","","","null","","null","","","","",""
"","","","","","audio-keyboard-response","345","2.1.0","454738","","","","2133","audio/493_531_B1.wav","k","493","531","493","calm",""
"","","","","","html-keyboard-response","346","2.1.0","455245","","","","null","","null","","","","",""
"","","","","","audio-keyboard-response","347","2.1.0","457402","","","","2155","audio/752_721_B4.wav","d","752","721","493","nervous",""
"","","","","","html-keyboard-response","348","2.1.0","457908","","","","null","","null","","","","",""
"","","","","","audio-keyboard-response","349","2.1.0","459361","","","","1456","audio/493_709_B3.wav","k","493","709","752","calm",""
"","","","","","html-keyboard-response","350","2.1.0","459917","","","","null","","null","","","","",""
"","","","","","audio-keyboard-response","351","2.1.0","462218","","","","2299","audio/573_612_B4.wav","k","573","612","493","calm",""
"","","","","","html-keyboard-response","352","2.1.0","462726","","","","null","","null","","","","",""
"","","","","","audio-keyboard-response","353","2.1.0","464503","","","","1776","audio/672_725_B4.wav","k","672","725","573","calm",""
"","","","","","html-keyboard-response","354","2.1.0","465010","","","","null","","null","","","","",""
"","","","","","audio-keyboard-response","355","2.1.0","467135","","","","2123","audio/672_713_B3.wav","d","672","713","672","nervous",""
"","","","","","html-keyboard-response","356","2.1.0","467637","","","","null","","null","","","","",""
"","","","","","audio-keyboard-response","357","2.1.0","469580","","","","1947","audio/493_618_B3.wav","k","493","618","672","calm",""
"","","","","","html-keyboard-response","358","2.1.0","470088","","","","null","","null","","","","",""
"","","","","","audio-keyboard-response","359","2.1.0","471093","","","","1003","audio/752_718_redo2.wav","d","752","718","493","nervous",""
"","","","","","html-keyboard-response","360","2.1.0","471598","","","","null","","null","","","","",""
"","","","","","audio-keyboard-response","361","2.1.0","473154","","","","1557","audio/573_705_B3.wav","k","573","705","752","calm",""
"","","","","","html-keyboard-response","362","2.1.0","473662","","","","null","","null","","","","",""
"","","","","","audio-keyboard-response","363","2.1.0","475468","","","","1808","audio/672_617_B4.wav","k","672","617","573","calm",""
"","","","","","html-keyboard-response","364","2.1.0","475971","","","","null","","null","","","","",""
"","","","","","audio-keyboard-response","365","2.1.0","477032","","","","1061","audio/672_624_B3.wav","k","672","624","672","calm",""
"","","","","","html-keyboard-response","366","2.1.0","477535","","","","null","","null","","","","",""
"","","","","","audio-keyboard-response","367","2.1.0","478618","","","","1083","audio/752_723_B4.wav","d","752","723","672","nervous",""
"","","","","","html-keyboard-response","368","2.1.0","479124","","","","null","","null","","","","",""
"","","","","","audio-keyboard-response","369","2.1.0","480126","","","","1003","audio/752_704_B3.wav","d","752","704","752","nervous",""
"","","","","","html-keyboard-response","370","2.1.0","480630","","","","null","","null","","","","",""
"","","","","","audio-keyboard-response","371","2.1.0","482691","","","","2059","audio/573_605_B3.wav","d","573","605","752","nervous",""
"","","","","","html-keyboard-response","372","2.1.0","483193","","","","null","","null","","","","",""
"","","","","","audio-keyboard-response","373","2.1.0","484695","","","","1504","audio/752_719_B4.wav","d","752","719","573","nervous",""
"","","","","","html-keyboard-response","374","2.1.0","485202","","","","null","","null","","","","",""
"","","","","","audio-keyboard-response","375","2.1.0","486098","","","","896","audio/672_717_B4.wav","k","672","717","752","calm",""
"","","","","","html-keyboard-response","376","2.1.0","486600","","","","null","","null","","","","",""
"","","","","","audio-keyboard-response","377","2.1.0","488740","","","","2139","audio/493_538_B1.wav","k","493","538","672","calm",""
"","","","","","html-keyboard-response","378","2.1.0","489247","","","","null","","null","","","","",""
"","","","","","audio-keyboard-response","379","2.1.0","491512","","","","2267","audio/752_625_B4.wav","d","752","625","493","nervous",""
"","","","","","html-keyboard-response","380","2.1.0","492017","","","","null","","null","","","","",""
"","","","","","audio-keyboard-response","381","2.1.0","493132","","","","1115","audio/752_616_B4.wav","d","752","616","752","nervous",""
"","","","","","html-keyboard-response","382","2.1.0","493639","","","","null","","null","","","","",""
"","","","","","audio-keyboard-response","383","2.1.0","495078","","","","1435","audio/672_524_B2.wav","k","672","524","752","calm",""
"","","","","","html-keyboard-response","384","2.1.0","495586","","","","null","","null","","","","",""
"","","","","","audio-keyboard-response","385","2.1.0","497640","","","","2053","audio/493_622_B3.wav","k","493","622","672","calm",""
"","","","","","html-keyboard-response","386","2.1.0","498146","","","","null","","null","","","","",""
"","","","","","audio-keyboard-response","387","2.1.0","499886","","","","1739","audio/493_720_B3.wav","k","493","720","493","calm",""
"","","","","","html-keyboard-response","388","2.1.0","500390","","","","null","","null","","","","",""
"","","","","","audio-keyboard-response","389","2.1.0","501331","","","","939","audio/672_707_B4.wav","k","672","707","493","calm",""
"","","","","","html-keyboard-response","390","2.1.0","501837","","","","null","","null","","","","",""
"","","","","","audio-keyboard-response","391","2.1.0","503177","","","","1339","audio/493_540_B2.wav","k","493","540","672","calm",""
"","","","","","html-keyboard-response","392","2.1.0","503680","","","","null","","null","","","","",""
"","","","","","audio-keyboard-response","393","2.1.0","505979","","","","2299","audio/573_620_B3.wav","d","573","620","493","nervous",""
"","","","","","html-keyboard-response","394","2.1.0","506486","","","","null","","null","","","","",""
"","","","","","audio-keyboard-response","395","2.1.0","507870","","","","1387","audio/752_607_B4.wav","d","752","607","573","nervous",""
"","","","","","html-keyboard-response","396","2.1.0","508374","","","","null","","null","","","","",""
"","","","","","audio-keyboard-response","397","2.1.0","509275","","","","907","audio/752_606_B4.wav","d","752","606","752","nervous",""
"","","","","","html-keyboard-response","398","2.1.0","509782","","","","null","","null","","","","",""
"","","","","","audio-keyboard-response","399","2.1.0","510677","","","","891","audio/493_527_redo2.wav","k","493","527","752","calm",""
"","","","","","html-keyboard-response","400","2.1.0","511181","","","","null","","null","","","","",""
"","","","","","audio-keyboard-response","401","2.1.0","512699","","","","1520","audio/573_708_B3.wav","d","573","708","493","nervous",""
"","","","","","html-keyboard-response","402","2.1.0","513203","","","","null","","null","","","","",""
"","","","","","audio-keyboard-response","403","2.1.0","514302","","","","1093","audio/493_621_B4.wav","k","493","621","573","calm",""
"","","","","","html-keyboard-response","404","2.1.0","514809","","","","null","","null","","","","",""
"","","","","","audio-keyboard-response","405","2.1.0","516100","","","","1291","audio/573_710_B4.wav","d","573","710","493","nervous",""
"","","","","","html-keyboard-response","406","2.1.0","516602","","","","null","","null","","","","",""
"","","","","","audio-keyboard-response","407","2.1.0","517906","","","","1307","audio/752_516_B1.wav","d","752","516","573","nervous",""
"","","","","","html-keyboard-response","408","2.1.0","518411","","","","null","","null","","","","",""
"","","","","","audio-keyboard-response","409","2.1.0","519569","","","","1163","audio/752_716_B4.wav","d","752","716","752","nervous",""
"","","","","","html-keyboard-response","410","2.1.0","520076","","","","null","","null","","","","",""
"","","","","","audio-keyboard-response","411","2.1.0","520773","","","","693","audio/672_515_B2.wav","k","672","515","752","calm",""
"","","","","","html-keyboard-response","412","2.1.0","521279","","","","null","","null","","","","",""
"","","","","","audio-keyboard-response","413","2.1.0","522893","","","","1616","audio/573_512_B1.wav","k","573","512","672","calm",""
"","","","","","html-keyboard-response","414","2.1.0","523400","","","","null","","null","","","","",""
"","","","","","audio-keyboard-response","415","2.1.0","524533","","","","1131","audio/672_521_B2.wav","k","672","521","573","calm",""
"","","","","","html-keyboard-response","416","2.1.0","525040","","","","null","","null","","","","",""
"","","","","","audio-keyboard-response","417","2.1.0","526415","","","","1376","audio/493_611_B3.wav","k","493","611","672","calm",""
"","","","","","html-keyboard-response","418","2.1.0","526921","","","","null","","null","","","","",""
"","","","","","audio-keyboard-response","419","2.1.0","529696","","","","2773","audio/573_714_B3.wav","k","573","714","493","calm",""
"","","","","","html-keyboard-response","420","2.1.0","530198","","","","null","","null","","","","",""
"","","","","","audio-keyboard-response","421","2.1.0","531126","","","","928","audio/752_610_B4.wav","d","752","610","573","nervous",""
"","","","","","html-keyboard-response","422","2.1.0","531634","","","","null","","null","","","","",""
"","","","","","audio-keyboard-response","423","2.1.0","533517","","","","1883","audio/493_510_B1.wav","k","493","510","752","calm",""
"","","","","","html-keyboard-response","424","2.1.0","534020","","","","null","","null","","","","",""
"","","","","","audio-keyboard-response","425","2.1.0","537090","","","","3072","audio/672_722_B3.wav","k","672","722","493","calm",""
"","","","","","html-keyboard-response","426","2.1.0","537598","","","","null","","null","","","","",""
"","","","","","audio-keyboard-response","427","2.1.0","539199","","","","1600","audio/573_614_B3.wav","k","573","614","672","calm",""
"","","","","","html-keyboard-response","428","2.1.0","539701","","","","null","","null","","","","",""
"","","","","","audio-keyboard-response","429","2.1.0","540968","","","","1269","audio/573_724_B3.wav","k","573","724","573","calm",""
"","","","","","html-keyboard-response","430","2.1.0","541475","","","","null","","null","","","","",""
"","","","","","html-button-response","431","2.1.0","547196","","","","5717","This is an attention check. Please select which labels you were using in the previous block.","1","","","","","true"
"","","","","","html-keyboard-response","432","2.1.0","550201","","","","null","
  <div class=""header_container""><div class=""header"">BLOCK 5</div></div>
  ","null","","","","",""
"","","","","","audio-keyboard-response","433","2.1.0","556552","","","","6352","audio/672_526_B2.wav","d","672","526","573","sharp",""
"","","","","","html-keyboard-response","434","2.1.0","557055","","","","null","","null","","","","",""
"","","","","","audio-keyboard-response","435","2.1.0","559310","","","","2256","audio/752_523_B2.wav","k","752","523","672","dull",""
"","","","","","html-keyboard-response","436","2.1.0","559818","","","","null","","null","","","","",""
"","","","","","audio-keyboard-response","437","2.1.0","561235","","","","1419","audio/752_520_B1.wav","k","752","520","752","dull",""
"","","","","","html-keyboard-response","438","2.1.0","561742","","","","null","","null","","","","",""
"","","","","","audio-keyboard-response","439","2.1.0","564514","","","","2773","audio/493_718_B3.wav","k","493","718","752","dull",""
"","","","","","html-keyboard-response","440","2.1.0","565017","","","","null","","null","","","","",""
"","","","","","audio-keyboard-response","441","2.1.0","567159","","","","2144","audio/573_704_B3.wav","d","573","704","493","sharp",""
"","","","","","html-keyboard-response","442","2.1.0","567666","","","","null","","null","","","","",""
"","","","","","audio-keyboard-response","443","2.1.0","568553","","","","885","audio/573_708_B3.wav","d","573","708","573","sharp",""
"","","","","","html-keyboard-response","444","2.1.0","569057","","","","null","","null","","","","",""
"","","","","","audio-keyboard-response","445","2.1.0","571339","","","","2283","audio/672_722_B3.wav","d","672","722","573","sharp",""
"","","","","","html-keyboard-response","446","2.1.0","571847","","","","null","","null","","","","",""
"","","","","","audio-keyboard-response","447","2.1.0","574531","","","","2683","audio/493_532_B1.wav","d","493","532","672","sharp",""
"","","","","","html-keyboard-response","448","2.1.0","575037","","","","null","","null","","","","",""
"","","","","","audio-keyboard-response","449","2.1.0","578601","","","","3563","audio/672_605_B4.wav","d","672","605","493","sharp",""
"","","","","","html-keyboard-response","450","2.1.0","579105","","","","null","","null","","","","",""
"","","","","","audio-keyboard-response","451","2.1.0","580215","","","","1115","audio/752_614_B4.wav","k","752","614","672","dull",""
"","","","","","html-keyboard-response","452","2.1.0","580720","","","","null","","null","","","","",""
"","","","","","audio-keyboard-response","453","2.1.0","583685","","","","2965","audio/672_537_B1.wav","d","672","537","752","sharp",""
"","","","","","html-keyboard-response","454","2.1.0","584189","","","","null","","null","","","","",""
"","","","","","audio-keyboard-response","455","2.1.0","587715","","","","3525","audio/493_616_B3.wav","d","493","616","672","sharp",""
"","","","","","html-keyboard-response","456","2.1.0","588220","","","","null","","null","","","","",""
"","","","","","audio-keyboard-response","457","2.1.0","590048","","","","1824","audio/573_710_B4.wav","d","573","710","493","sharp",""
"","","","","","html-keyboard-response","458","2.1.0","590554","","","","null","","null","","","","",""
"","","","","","audio-keyboard-response","459","2.1.0","592722","","","","2171","audio/752_709_B4.wav","d","752","709","573","sharp",""
"","","","","","html-keyboard-response","460","2.1.0","593228","","","","null","","null","","","","",""
"","","","","","audio-keyboard-response","461","2.1.0","595662","","","","2432","audio/672_604_B4.wav","d","672","604","752","sharp",""
"","","","","","html-keyboard-response","462","2.1.0","596169","","","","null","","null","","","","",""
"","","","","","audio-keyboard-response","463","2.1.0","599274","","","","3104","audio/752_727_B4.wav","k","752","727","672","dull",""
"","","","","","html-keyboard-response","464","2.1.0","599782","","","","null","","null","","","","",""
"","","","","","audio-keyboard-response","465","2.1.0","600990","","","","1211","audio/493_622_B3.wav","d","493","622","752","sharp",""
"","","","","","html-keyboard-response","466","2.1.0","601494","","","","null","","null","","","","",""
"","","","","","audio-keyboard-response","467","2.1.0","602474","","","","976","audio/672_621_B3.wav","d","672","621","493","sharp",""
"","","","","","html-keyboard-response","468","2.1.0","602991","","","","null","","null","","","","",""
"","","","","","audio-keyboard-response","469","2.1.0","604037","","","","1045","audio/493_715_B3.wav","d","493","715","672","sharp",""
"","","","","","html-keyboard-response","470","2.1.0","604545","","","","null","","null","","","","",""
"","","","","","audio-keyboard-response","471","2.1.0","605285","","","","736","audio/752_506_B2.wav","k","752","506","493","dull",""
"","","","","","html-keyboard-response","472","2.1.0","605788","","","","null","","null","","","","",""
"","","","","","audio-keyboard-response","473","2.1.0","606734","","","","944","audio/672_724_B4.wav","d","672","724","752","sharp",""
"","","","","","html-keyboard-response","474","2.1.0","607237","","","","null","","null","","","","",""
"","","","","","audio-keyboard-response","475","2.1.0","608326","","","","1093","audio/573_508_B1.wav","d","573","508","672","sharp",""
"","","","","","html-keyboard-response","476","2.1.0","608833","","","","null","","null","","","","",""
"","","","","","audio-keyboard-response","477","2.1.0","610103","","","","1269","audio/573_716_B3.wav","d","573","716","573","sharp",""
"","","","","","html-keyboard-response","478","2.1.0","610608","","","","null","","null","","","","",""
"","","","","","audio-keyboard-response","479","2.1.0","612657","","","","2053","audio/573_510_B1.wav","d","573","510","573","sharp",""
"","","","","","html-keyboard-response","480","2.1.0","613162","","","","null","","null","","","","",""
"","","","","","audio-keyboard-response","481","2.1.0","615619","","","","2459","audio/672_707_B4.wav","d","672","707","573","sharp",""
"","","","","","html-keyboard-response","482","2.1.0","616126","","","","null","","null","","","","",""
"","","","","","audio-keyboard-response","483","2.1.0","617974","","","","1851","audio/493_511_B1.wav","k","493","511","672","dull",""
"","","","","","html-keyboard-response","484","2.1.0","618478","","","","null","","null","","","","",""
"","","","","","audio-keyboard-response","485","2.1.0","619986","","","","1509","audio/672_512_B1.wav","d","672","512","493","sharp",""
"","","","","","html-keyboard-response","486","2.1.0","620491","","","","null","","null","","","","",""
"","","","","","audio-keyboard-response","487","2.1.0","621616","","","","1125","audio/573_620_B3.wav","d","573","620","672","sharp",""
"","","","","","html-keyboard-response","488","2.1.0","622119","","","","null","","null","","","","",""
"","","","","","audio-keyboard-response","489","2.1.0","623960","","","","1840","audio/493_516_B1.wav","d","493","516","573","sharp",""
"","","","","","html-keyboard-response","490","2.1.0","624467","","","","null","","null","","","","",""
"","","","","","audio-keyboard-response","491","2.1.0","625735","","","","1269","audio/752_714_B4.wav","k","752","714","493","dull",""
"","","","","","html-keyboard-response","492","2.1.0","626241","","","","null","","null","","","","",""
"","","","","","audio-keyboard-response","493","2.1.0","627608","","","","1365","audio/573_507_B1.wav","d","573","507","752","sharp",""
"","","","","","html-keyboard-response","494","2.1.0","628115","","","","null","","null","","","","",""
"","","","","","audio-keyboard-response","495","2.1.0","629939","","","","1824","audio/752_527_B2.wav","k","752","527","573","dull",""
"","","","","","html-keyboard-response","496","2.1.0","630447","","","","null","","null","","","","",""
"","","","","","audio-keyboard-response","497","2.1.0","631790","","","","1344","audio/752_723_B4.wav","k","752","723","752","dull",""
"","","","","","html-keyboard-response","498","2.1.0","632292","","","","null","","null","","","","",""
"","","","","","audio-keyboard-response","499","2.1.0","633817","","","","1525","audio/493_713_B3.wav","d","493","713","752","sharp",""
"","","","","","html-keyboard-response","500","2.1.0","634320","","","","null","","null","","","","",""
"","","","","","audio-keyboard-response","501","2.1.0","635469","","","","1147","audio/573_509_B1.wav","d","573","509","493","sharp",""
"","","","","","html-keyboard-response","502","2.1.0","635975","","","","null","","null","","","","",""
"","","","","","audio-keyboard-response","503","2.1.0","637732","","","","1755","audio/752_606_B4.wav","k","752","606","573","dull",""
"","","","","","html-keyboard-response","504","2.1.0","638239","","","","null","","null","","","","",""
"","","","","","audio-keyboard-response","505","2.1.0","640431","","","","2192","audio/573_717_B4.wav","d","573","717","752","sharp",""
"","","","","","html-keyboard-response","506","2.1.0","640939","","","","null","","null","","","","",""
"","","","","","audio-keyboard-response","507","2.1.0","643089","","","","2149","audio/573_518_B1.wav","d","573","518","573","sharp",""
"","","","","","html-keyboard-response","508","2.1.0","643594","","","","null","","null","","","","",""
"","","","","","audio-keyboard-response","509","2.1.0","645773","","","","2181","audio/672_521_B2.wav","d","672","521","573","sharp",""
"","","","","","html-keyboard-response","510","2.1.0","646283","","","","null","","null","","","","",""
"","","","","","audio-keyboard-response","511","2.1.0","648591","","","","2309","audio/493_534_B1.wav","k","493","534","672","dull",""
"","","","","","html-keyboard-response","512","2.1.0","649099","","","","null","","null","","","","",""
"","","","","","audio-keyboard-response","513","2.1.0","651485","","","","2384","audio/672_725_B4.wav","d","672","725","493","sharp",""
"","","","","","html-keyboard-response","514","2.1.0","651989","","","","null","","null","","","","",""
"","","","","","audio-keyboard-response","515","2.1.0","653071","","","","1083","audio/752_705_B4.wav","k","752","705","672","dull",""
"","","","","","html-keyboard-response","516","2.1.0","653576","","","","null","","null","","","","",""
"","","","","","audio-keyboard-response","517","2.1.0","654986","","","","1408","audio/493_540_B2.wav","d","493","540","752","sharp",""
"","","","","","html-keyboard-response","518","2.1.0","655494","","","","null","","null","","","","",""
"","","","","","audio-keyboard-response","519","2.1.0","657439","","","","1941","audio/573_618_B3.wav","d","573","618","493","sharp",""
"","","","","","html-keyboard-response","520","2.1.0","657945","","","","null","","null","","","","",""
"","","","","","audio-keyboard-response","521","2.1.0","660425","","","","2480","audio/493_720_B3.wav","k","493","720","573","dull",""
"","","","","","html-keyboard-response","522","2.1.0","660932","","","","null","","null","","","","",""
"","","","","","audio-keyboard-response","523","2.1.0","662142","","","","1211","audio/672_615_B4.wav","d","672","615","493","sharp",""
"","","","","","html-keyboard-response","524","2.1.0","662647","","","","null","","null","","","","",""
"","","","","","audio-keyboard-response","525","2.1.0","663648","","","","997","audio/752_609_B4.wav","k","752","609","672","dull",""
"","","","","","html-keyboard-response","526","2.1.0","664155","","","","null","","null","","","","",""
"","","","","","audio-keyboard-response","527","2.1.0","665610","","","","1451","audio/493_619_B3.wav","d","493","619","752","sharp",""
"","","","","","html-keyboard-response","528","2.1.0","666115","","","","null","","null","","","","",""
"","","","","","html-keyboard-response","529","2.1.0","669119","","","","null","
  <div class=""header_container""><div class=""header"">BLOCK 6</div></div>
  ","null","","","","",""
"","","","","","audio-keyboard-response","530","2.1.0","670486","","","","1371","audio/672_620_B3.wav","k","672","620","493","feminine",""
"","","","","","html-keyboard-response","531","2.1.0","670994","","","","null","","null","","","","",""
"","","","","","audio-keyboard-response","532","2.1.0","672117","","","","1120","audio/672_616_B3.wav","k","672","616","672","feminine",""
"","","","","","html-keyboard-response","533","2.1.0","672620","","","","null","","null","","","","",""
"","","","","","audio-keyboard-response","534","2.1.0","674783","","","","2160","audio/752_540_B1.wav","d","752","540","672","masculine",""
"","","","","","html-keyboard-response","535","2.1.0","675291","","","","null","","null","","","","",""
"","","","","","audio-keyboard-response","536","2.1.0","676406","","","","1120","audio/493_531_B1.wav","k","493","531","752","feminine",""
"","","","","","html-keyboard-response","537","2.1.0","676907","","","","null","","null","","","","",""
"","","","","","audio-keyboard-response","538","2.1.0","678972","","","","2064","audio/752_608_B4.wav","k","752","608","493","feminine",""
"","","","","","html-keyboard-response","539","2.1.0","679480","","","","null","","null","","","","",""
"","","","","","audio-keyboard-response","540","2.1.0","681348","","","","1867","audio/573_516_B1.wav","k","573","516","752","feminine",""
"","","","","","html-keyboard-response","541","2.1.0","681852","","","","null","","null","","","","",""
"","","","","","audio-keyboard-response","542","2.1.0","684182","","","","2331","audio/573_607_B4.wav","d","573","607","573","masculine",""
"","","","","","html-keyboard-response","543","2.1.0","684690","","","","null","","null","","","","",""
"","","","","","audio-keyboard-response","544","2.1.0","687005","","","","2315","audio/573_606_B4.wav","d","573","606","573","masculine",""
"","","","","","html-keyboard-response","545","2.1.0","687513","","","","null","","null","","","","",""
"","","","","","audio-keyboard-response","546","2.1.0","690419","","","","2907","audio/493_513_B1.wav","k","493","513","573","feminine",""
"","","","","","html-keyboard-response","547","2.1.0","690928","","","","null","","null","","","","",""
"","","","","","audio-keyboard-response","548","2.1.0","693545","","","","2619","audio/752_716_B4.wav","k","752","716","493","feminine",""
"","","","","","html-keyboard-response","549","2.1.0","694050","","","","null","","null","","","","",""
"","","","","","audio-keyboard-response","550","2.1.0","696148","","","","2096","audio/493_521_B2.wav","k","493","521","752","feminine",""
"","","","","","html-keyboard-response","551","2.1.0","696656","","","","null","","null","","","","",""
"","","","","","audio-keyboard-response","552","2.1.0","697468","","","","811","audio/573_508_B1.wav","k","573","508","493","feminine",""
"","","","","","html-keyboard-response","553","2.1.0","697977","","","","null","","null","","","","",""
"","","","","","audio-keyboard-response","554","2.1.0","698369","","","","395","audio/752_604_B4.wav","k","752","604","573","feminine",""
"","","","","","html-keyboard-response","555","2.1.0","698874","","","","null","","null","","","","",""
"","","","","","audio-keyboard-response","556","2.1.0","699577","","","","704","audio/493_622_B3.wav","k","493","622","752","feminine",""
"","","","","","html-keyboard-response","557","2.1.0","700085","","","","null","","null","","","","",""
"","","","","","audio-keyboard-response","558","2.1.0","701247","","","","1163","audio/573_708_B3.wav","k","573","708","493","feminine",""
"","","","","","html-keyboard-response","559","2.1.0","701753","","","","null","","null","","","","",""
"","","","","","audio-keyboard-response","560","2.1.0","702643","","","","891","audio/573_707_B3.wav","k","573","707","573","feminine",""
"","","","","","html-keyboard-response","561","2.1.0","703149","","","","null","","null","","","","",""
"","","","","","audio-keyboard-response","562","2.1.0","703862","","","","709","audio/752_511_B2.wav","k","752","511","573","feminine",""
"","","","","","html-keyboard-response","563","2.1.0","704367","","","","null","","null","","","","",""
"","","","","","audio-keyboard-response","564","2.1.0","705547","","","","1184","audio/672_535_B1.wav","k","672","535","752","feminine",""
"","","","","","html-keyboard-response","565","2.1.0","706051","","","","null","","null","","","","",""
"","","","","","audio-keyboard-response","566","2.1.0","707132","","","","1083","audio/752_505_B2.wav","k","752","505","672","feminine",""
"","","","","","html-keyboard-response","567","2.1.0","707635","","","","null","","null","","","","",""
"","","","","","audio-keyboard-response","568","2.1.0","708193","","","","560","audio/493_523_B1.wav","k","493","523","752","feminine",""
"","","","","","html-keyboard-response","569","2.1.0","708698","","","","null","","null","","","","",""
"","","","","","audio-keyboard-response","570","2.1.0","709528","","","","832","audio/752_713_B4.wav","k","752","713","493","feminine",""
"","","","","","html-keyboard-response","571","2.1.0","710033","","","","null","","null","","","","",""
"","","","","","audio-keyboard-response","572","2.1.0","710773","","","","736","audio/752_527_B2.wav","k","752","527","752","feminine",""
"","","","","","html-keyboard-response","573","2.1.0","711280","","","","null","","null","","","","",""
"","","","","","audio-keyboard-response","574","2.1.0","711677","","","","395","audio/672_613_B4.wav","k","672","613","752","feminine",""
"","","","","","html-keyboard-response","575","2.1.0","712180","","","","null","","null","","","","",""
"","","","","","audio-keyboard-response","576","2.1.0","712743","","","","565","audio/672_705_B3.wav","k","672","705","672","feminine",""
"","","","","","html-keyboard-response","577","2.1.0","713245","","","","null","","null","","","","",""
"","","","","","audio-keyboard-response","578","2.1.0","714278","","","","1035","audio/573_605_B3.wav","k","573","605","672","feminine",""
"","","","","","html-keyboard-response","579","2.1.0","714811","","","","null","","null","","","","",""
"","","","","","audio-keyboard-response","580","2.1.0","715935","","","","1120","audio/573_723_B3.wav","k","573","723","573","feminine",""
"","","","","","html-keyboard-response","581","2.1.0","716439","","","","null","","null","","","","",""
"","","","","","audio-keyboard-response","582","2.1.0","717353","","","","912","audio/493_710_B3.wav","k","493","710","573","feminine",""
"","","","","","html-keyboard-response","583","2.1.0","717858","","","","null","","null","","","","",""
"","","","","","audio-keyboard-response","584","2.1.0","719265","","","","1408","audio/493_512_B1.wav","d","493","512","493","masculine",""
"","","","","","html-keyboard-response","585","2.1.0","719821","","","","null","","null","","","","",""
"","","","","","audio-keyboard-response","586","2.1.0","720082","","","","261","audio/493_538_B1.wav","k","493","538","493","feminine",""
"","","","","","html-keyboard-response","587","2.1.0","720587","","","","null","","null","","","","",""
"","","","","","audio-keyboard-response","588","2.1.0","720923","","","","336","audio/672_725_B4.wav","d","672","725","493","masculine",""
"","","","","","html-keyboard-response","589","2.1.0","721431","","","","null","","null","","","","",""
"","","","","","audio-keyboard-response","590","2.1.0","721754","","","","320","audio/752_533_B2.wav","k","752","533","672","feminine",""
"","","","","","html-keyboard-response","591","2.1.0","722258","","","","null","","null","","","","",""
"","","","","","audio-keyboard-response","592","2.1.0","722538","","","","283","audio/493_610_B3.wav","k","493","610","752","feminine",""
"","","","","","html-keyboard-response","593","2.1.0","723044","","","","null","","null","","","","",""
"","","","","","audio-keyboard-response","594","2.1.0","723372","","","","331","audio/573_609_B4.wav","k","573","609","493","feminine",""
"","","","","","html-keyboard-response","595","2.1.0","723875","","","","null","","null","","","","",""
"","","","","","audio-keyboard-response","596","2.1.0","724714","","","","837","audio/672_509_B2.wav","k","672","509","573","feminine",""
"","","","","","html-keyboard-response","597","2.1.0","725220","","","","null","","null","","","","",""
"","","","","","audio-keyboard-response","598","2.1.0","726534","","","","1317","audio/752_721_B4.wav","k","752","721","672","feminine",""
"","","","","","html-keyboard-response","599","2.1.0","727038","","","","null","","null","","","","",""
"","","","","","audio-keyboard-response","600","2.1.0","728064","","","","1029","audio/752_614_B4.wav","k","752","614","752","feminine",""
"","","","","","html-keyboard-response","601","2.1.0","728570","","","","null","","null","","","","",""
"","","","","","audio-keyboard-response","602","2.1.0","729157","","","","592","audio/573_617_B3.wav","k","573","617","752","feminine",""
"","","","","","html-keyboard-response","603","2.1.0","729661","","","","null","","null","","","","",""
"","","","","","audio-keyboard-response","604","2.1.0","730373","","","","715","audio/493_539_B2.wav","k","493","539","573","feminine",""
"","","","","","html-keyboard-response","605","2.1.0","730876","","","","null","","null","","","","",""
"","","","","","audio-keyboard-response","606","2.1.0","731531","","","","656","audio/672_520_B2.wav","k","672","520","493","feminine",""
"","","","","","html-keyboard-response","607","2.1.0","732037","","","","null","","null","","","","",""
"","","","","","audio-keyboard-response","608","2.1.0","733141","","","","1104","audio/752_507_B2.wav","d","752","507","672","masculine",""
"","","","","","html-keyboard-response","609","2.1.0","733647","","","","null","","null","","","","",""
"","","","","","audio-keyboard-response","610","2.1.0","734802","","","","1157","audio/672_532_B2.wav","k","672","532","752","feminine",""
"","","","","","html-keyboard-response","611","2.1.0","735305","","","","null","","null","","","","",""
"","","","","","audio-keyboard-response","612","2.1.0","737481","","","","2176","audio/493_709_B3.wav","k","493","709","672","feminine",""
"","","","","","html-keyboard-response","613","2.1.0","737988","","","","null","","null","","","","",""
"","","","","","audio-keyboard-response","614","2.1.0","739385","","","","1397","audio/493_625_B4.wav","k","493","625","493","feminine",""
"","","","","","html-keyboard-response","615","2.1.0","739888","","","","null","","null","","","","",""
"","","","","","audio-keyboard-response","616","2.1.0","740346","","","","453","audio/672_615_B4.wav","k","672","615","493","feminine",""
"","","","","","html-keyboard-response","617","2.1.0","740851","","","","null","","null","","","","",""
"","","","","","audio-keyboard-response","618","2.1.0","741587","","","","736","audio/672_717_B4.wav","k","672","717","672","feminine",""
"","","","","","html-keyboard-response","619","2.1.0","742095","","","","null","","null","","","","",""
"","","","","","audio-keyboard-response","620","2.1.0","743980","","","","1888","audio/573_715_B3.wav","k","573","715","672","feminine",""
"","","","","","html-keyboard-response","621","2.1.0","744482","","","","null","","null","","","","",""
"","","","","","audio-keyboard-response","622","2.1.0","745693","","","","1211","audio/573_714_B3.wav","k","573","714","573","feminine",""
"","","","","","html-keyboard-response","623","2.1.0","746200","","","","null","","null","","","","",""
"","","","","","audio-keyboard-response","624","2.1.0","748193","","","","1995","audio/672_510_B1.wav","k","672","510","573","feminine",""
"","","","","","html-keyboard-response","625","2.1.0","748699","","","","null","","null","","","","",""
"","","","","","html-button-response","626","2.1.0","750263","","","","1561","<p>You have completed the listening trials. You will now be directed to a short demographic survey. Please answer the survey questions if you feel comfortable doing so. After seeing the survey, you will be able to end the study.</p>","0","","","","",""
"","","","","","survey","627","3.0.0","753311","","","","2983","","{""question1"":null,""understood"":null,""age"":null,""gender"":null,""race"":null,""ethnicity"":null,""language"":null,""education"":null,""enjoy"":null,""payment"":null,""comments"":null}","","","","",""
